timestamp(unix),attitude_roll(radians),attitude_pitch(radians),attitude_yaw(radians),rotation_rate_x(radians/s),rotation_rate_y(radians/s),rotation_rate_z(radians/s),gravity_x(G),gravity_y(G),gravity_z(G),user_acc_x(G),user_acc_y(G),user_acc_z(G),magnetic_field_x(microteslas),magnetic_field_y(microteslas),magnetic_field_z(microteslas),latitude(degree),longitude(degree),altitude(meter),speed(m/s),course(degree),timestamp(unix),User Mark
1514403876.426653,0.229401,1.418091,1.520820,-0.015970,-0.044843,0.026475,0.034586,-0.988363,-0.148114,-0.006693,0.001776,0.009472,-32.543228,-48.606960,32.547852,,,,,,,1
1514403876.436663,0.227210,1.418008,1.522598,-0.011668,-0.039490,0.025437,0.034280,-0.988351,-0.148270,-0.010461,-0.007682,0.018952,-32.543228,-48.606960,32.547852,,,,,,,1
1514403876.446642,0.225701,1.417956,1.523879,-0.010510,-0.023318,0.016955,0.034068,-0.988343,-0.148371,-0.015620,-0.008865,0.022791,-32.674942,-48.562054,32.671143,,,,,,,1
1514403876.456622,0.223991,1.417781,1.525182,-0.024515,-0.050026,0.015741,0.033853,-0.988316,-0.148598,0.002250,0.006947,0.011772,-32.674942,-48.562054,32.671143,,,,,,,1
1514403876.466631,0.222045,1.417556,1.526538,-0.025642,-0.062900,0.017821,0.033613,-0.988282,-0.148881,0.007342,0.014832,-0.000090,-32.754425,-48.765385,32.656311,,,,,,,1
,,,,,,,,,,,,,,,,33.823760,-116.547666,139.718384,-1.000000,-1.000000,1514403875.812911,1
1514403876.476611,0.219723,1.417377,1.528146,-0.022494,-0.076880,0.020973,0.033305,-0.988254,-0.149131,0.009328,0.010486,-0.001046,-32.754425,-48.765385,32.656311,,,,,,,1
1514403876.486590,0.217480,1.417171,1.529505,-0.022538,-0.093934,0.014479,0.033015,-0.988223,-0.149405,0.018636,0.011813,0.000067,-32.622925,-48.750896,32.685791,,,,,,,1
1514403876.496600,0.215708,1.417079,1.530376,-0.006439,-0.083229,0.010277,0.032770,-0.988209,-0.149554,0.016135,0.012241,-0.002577,-32.622925,-48.750896,32.685791,,,,,,,1
1514403876.506579,0.214772,1.417193,1.530786,0.016187,-0.040439,0.008368,0.032606,-0.988226,-0.149474,0.000216,0.000158,0.005873,-32.474350,-48.366447,32.798523,,,,,,,1
1514403876.516558,0.214696,1.417377,1.530622,0.015209,-0.024210,-0.003327,0.032555,-0.988254,-0.149298,-0.005975,-0.000271,0.018347,-32.474350,-48.366447,32.798523,,,,,,,1
1514403876.526568,0.215592,1.417432,1.529443,0.003472,-0.029293,-0.020483,0.032678,-0.988263,-0.149216,0.000235,0.009427,0.017289,-32.431488,-48.189720,32.916199,,,,,,,1
1514403876.536547,0.216662,1.417394,1.528038,0.001324,-0.031426,-0.020497,0.032845,-0.988257,-0.149217,-0.007699,0.010580,0.004182,-32.431488,-48.189720,32.916199,,,,,,,1
1514403876.546527,0.217929,1.417517,1.526638,0.019597,-0.004776,-0.016067,0.033008,-0.988276,-0.149056,-0.008395,0.003000,-0.001549,-32.489120,-48.259777,32.901917,,,,,,,1
1514403876.556536,0.219231,1.417720,1.525294,0.023870,-0.005879,-0.014995,0.033158,-0.988307,-0.148817,0.012069,-0.005117,-0.001269,-32.489120,-48.259777,32.901917,,,,,,,1
1514403876.566516,0.219712,1.417805,1.524544,0.007701,-0.032710,-0.006586,0.033211,-0.988320,-0.148719,0.020133,0.005623,-0.001306,-32.410034,-48.479450,32.737854,,,,,,,1
1514403876.576495,0.219762,1.417935,1.524206,0.019477,-0.024303,0.002029,0.033191,-0.988339,-0.148592,0.023144,0.014264,-0.005171,-32.410034,-48.479450,32.737854,,,,,,,1
1514403876.586505,0.219669,1.418345,1.524329,0.046315,0.009711,0.013993,0.033089,-0.988402,-0.148198,0.014717,0.007170,-0.011210,-32.441620,-48.604820,32.792664,,,,,,,1
1514403876.596484,0.219723,1.418972,1.524490,0.061337,0.022491,0.015147,0.032962,-0.988497,-0.147592,-0.000216,0.001406,-0.005698,-32.441620,-48.604820,32.792664,,,,,,,1
1514403876.606463,0.219039,1.419515,1.525290,0.048400,0.004156,0.027877,0.032744,-0.988579,-0.147092,0.001527,0.008095,0.000790,-32.497665,-48.469620,32.875183,,,,,,,1
1514403876.616473,0.216479,1.420056,1.527811,0.043990,-0.010140,0.056685,0.032253,-0.988660,-0.146653,-0.001369,0.000959,0.009843,-32.497665,-48.469620,32.875183,,,,,,,1
1514403876.626452,0.213105,1.420769,1.531411,0.063387,0.034624,0.067615,0.031609,-0.988767,-0.146072,-0.004463,-0.016604,0.029968,-32.409851,-48.335983,32.990112,,,,,,,1
1514403876.636431,0.210027,1.421564,1.535099,0.064523,0.057027,0.074135,0.030995,-0.988886,-0.145398,0.007442,-0.022421,0.027829,-32.409851,-48.335983,32.990112,,,,,,,1
1514403876.646441,0.206332,1.422236,1.539299,0.048415,0.043142,0.076183,0.030321,-0.988985,-0.144861,0.008436,0.000506,0.019952,-32.540710,-48.087978,33.032166,,,,,,,1
1514403876.656420,0.202233,1.422845,1.543916,0.047343,0.046287,0.081543,0.029605,-0.989075,-0.144392,0.010907,0.018403,0.012281,-32.540710,-48.087978,33.032166,,,,,,,1
1514403876.666400,0.197838,1.423564,1.548749,0.061183,0.034334,0.090071,0.028831,-0.989181,-0.143822,0.014169,0.009856,0.008385,-32.605927,-48.021809,32.806152,,,,,,,1
1514403876.676409,0.191960,1.424455,1.555045,0.071821,0.035046,0.113624,0.027816,-0.989311,-0.143123,-0.002822,-0.001122,0.013164,-32.605927,-48.021809,32.806152,,,,,,,1
1514403876.686389,0.185494,1.425265,1.561846,0.055735,0.022299,0.110330,0.026742,-0.989429,-0.142510,-0.031900,0.001590,0.016656,-32.771286,-47.971661,33.018372,,,,,,,1
1514403876.696368,0.179940,1.425838,1.567740,0.038731,0.038693,0.091121,0.025848,-0.989512,-0.142097,-0.017517,0.016093,0.019859,-32.771286,-47.971661,33.018372,,,,,,,1
1514403876.706378,0.175615,1.426530,1.573055,0.064733,0.121152,0.085117,0.025114,-0.989612,-0.141533,-0.005705,-0.000745,0.014412,-32.754379,-48.097733,32.942383,,,,,,,1
1514403876.716357,0.172880,1.427759,1.578080,0.118692,0.254686,0.096505,0.024517,-0.989788,-0.140401,-0.015454,-0.045018,0.017735,-32.754379,-48.097733,32.942383,,,,,,,1
1514403876.726336,0.169803,1.429285,1.584015,0.136945,0.281216,0.109491,0.023830,-0.990004,-0.138987,-0.021587,-0.040575,0.015940,-33.220062,-47.895142,33.030762,,,,,,,1
1514403876.736346,0.173162,1.430749,1.583521,0.148113,0.292942,-0.048737,0.024047,-0.990209,-0.137477,-0.015242,0.004751,-0.000462,-33.220062,-47.895142,33.030762,,,,,,,1
1514403876.746325,0.197699,1.431494,1.561702,0.115662,0.290291,-0.319414,0.027267,-0.990313,-0.136123,-0.060196,0.098742,-0.010545,-32.921600,-47.724014,32.824097,,,,,,,1
1514403876.756304,0.217356,1.431597,1.544971,0.041573,0.317636,-0.180375,0.029916,-0.990327,-0.135461,-0.136544,0.102663,-0.029060,-32.921600,-47.724014,32.824097,,,,,,,1
1514403876.766314,0.228243,1.431964,1.537446,0.072467,0.353679,-0.081756,0.031307,-0.990378,-0.134774,-0.018871,0.008872,-0.008415,-33.058243,-47.917259,32.691101,,,,,,,1
1514403876.776293,0.238781,1.432817,1.530403,0.111991,0.346940,-0.069952,0.032525,-0.990496,-0.133615,0.129370,-0.008741,-0.022146,-33.058243,-47.917259,32.691101,,,,,,,1
1514403876.786273,0.246126,1.433977,1.525951,0.127668,0.281959,-0.022083,0.033226,-0.990655,-0.132257,0.087883,-0.008277,-0.043142,-33.384537,-47.956741,32.489075,,,,,,,1
1514403876.796282,0.252215,1.435235,1.522344,0.136074,0.241222,-0.022250,0.033720,-0.990826,-0.130847,-0.011320,0.003490,-0.032957,-33.384537,-47.956741,32.489075,,,,,,,1
1514403876.806262,0.261976,1.436393,1.515117,0.133189,0.281729,-0.086250,0.034698,-0.990981,-0.129403,-0.057632,0.032943,-0.007422,-33.594070,-47.876713,32.634644,,,,,,,1
1514403876.816241,0.276670,1.437335,1.504052,0.131622,0.407577,-0.124195,0.036340,-0.991107,-0.127981,-0.051737,0.031909,0.021856,-33.594070,-47.876713,32.634644,,,,,,,1
1514403876.826251,0.293123,1.438341,1.492548,0.143809,0.522114,-0.121523,0.038153,-0.991241,-0.126412,-0.035651,0.002380,0.032784,-33.627457,-47.724083,32.394714,,,,,,,1
1514403876.836230,0.309421,1.439336,1.480984,0.143603,0.462218,-0.128209,0.039908,-0.991372,-0.124834,-0.002585,-0.006660,0.013308,-33.627457,-47.724083,32.394714,,,,,,,1
1514403876.846209,0.325632,1.440182,1.468609,0.128340,0.384079,-0.128584,0.041659,-0.991482,-0.123377,0.021055,0.004132,0.006846,-33.721619,-47.696869,32.421814,,,,,,,1
1514403876.856219,0.342278,1.440726,1.455453,0.104692,0.347869,-0.137344,0.043525,-0.991553,-0.122159,0.018013,0.007635,0.017606,-33.721619,-47.696869,32.421814,,,,,,,1
1514403876.866198,0.357432,1.441220,1.443162,0.103339,0.282368,-0.124805,0.045200,-0.991617,-0.121027,0.002361,0.005701,0.000864,-33.860336,-47.549160,32.287537,,,,,,,1
1514403876.876177,0.371491,1.441644,1.432225,0.089645,0.343405,-0.119208,0.046745,-0.991671,-0.119989,-0.010383,0.006198,0.012979,-33.860336,-47.549160,32.287537,,,,,,,1
1514403876.886187,0.387365,1.442083,1.419350,0.107690,0.282693,-0.150466,0.048480,-0.991728,-0.118829,-0.003695,0.011488,0.033792,-34.101913,-47.645027,32.138306,,,,,,,1
1514403876.896166,0.405463,1.442352,1.403391,0.099005,0.220063,-0.190336,0.050516,-0.991762,-0.117685,-0.025080,0.006914,0.007364,-34.101913,-47.645027,32.138306,,,,,,,1
1514403876.906146,0.425420,1.442317,1.385670,0.086361,0.250491,-0.219101,0.052869,-0.991758,-0.116685,-0.026913,-0.012576,0.020142,-34.214188,-47.561214,31.981323,,,,,,,1
1514403876.916155,0.448229,1.442011,1.365516,0.079132,0.290699,-0.259579,0.055648,-0.991719,-0.115722,-0.007140,-0.006313,0.023010,-34.214188,-47.561214,31.981323,,,,,,,1
1514403876.926135,0.473677,1.441474,1.342848,0.085653,0.297506,-0.289486,0.058817,-0.991650,-0.114743,0.004843,0.008724,0.006131,-33.901245,-47.706394,31.959473,,,,,,,1
1514403876.936114,0.499140,1.441197,1.319673,0.125998,0.229590,-0.269396,0.061852,-0.991614,-0.113450,0.005668,-0.001886,-0.011717,-33.901245,-47.706394,31.959473,,,,,,,1
1514403876.946124,0.522275,1.441191,1.298120,0.133142,0.160579,-0.237604,0.064463,-0.991613,-0.111995,0.012335,-0.013682,-0.011449,-33.638031,-47.740082,31.987671,,,,,,,1
1514403876.956103,0.543571,1.441008,1.277997,0.112644,0.117757,-0.233553,0.066927,-0.991589,-0.110752,0.048033,-0.014789,0.005756,-33.638031,-47.740082,31.987671,,,,,,,1
1514403876.966082,0.562097,1.440766,1.259030,0.104393,-0.078405,-0.221609,0.069095,-0.991558,-0.109696,0.052655,-0.003025,0.009217,-33.539963,-47.704369,32.097534,,,,,,,1
1514403876.976092,0.578358,1.440244,1.240740,0.078282,-0.204523,-0.235054,0.071153,-0.991490,-0.108993,0.030760,0.017628,-0.022950,-33.539963,-47.704369,32.097534,,,,,,,1
1514403876.986071,0.594328,1.439635,1.222711,0.080467,-0.187479,-0.228556,0.073222,-0.991411,-0.108342,0.010076,0.025972,-0.025508,-33.271439,-48.129673,32.040894,,,,,,,1
1514403876.996050,0.608764,1.439182,1.206286,0.083579,-0.191122,-0.197549,0.075035,-0.991351,-0.107642,-0.020790,0.038501,-0.016137,-33.271439,-48.129673,32.040894,,,,,,,1
1514403877.006060,0.620828,1.438823,1.191840,0.079017,-0.246121,-0.168923,0.076536,-0.991304,-0.107019,-0.012235,0.066240,-0.022894,-33.102859,-48.325256,32.379333,,,,,,,1
1514403877.016039,0.628498,1.438654,1.180377,0.072908,-0.412814,-0.118338,0.077453,-0.991282,-0.106564,0.032517,0.062098,-0.032047,-33.102859,-48.325256,32.379333,,,,,,,1
1514403877.026019,0.633992,1.438795,1.170864,0.093339,-0.362970,-0.087061,0.077954,-0.991300,-0.106024,0.059146,0.027616,-0.014246,-32.850479,-48.064999,32.830078,,,,,,,1
1514403877.036028,0.641328,1.439246,1.161086,0.116370,-0.198351,-0.068102,0.078462,-0.991360,-0.105091,0.048156,-0.021107,0.023593,-32.850479,-48.064999,32.830078,,,,,,,1
1514403877.046008,0.643929,1.439797,1.156656,0.053041,-0.185453,0.027038,0.078406,-0.991432,-0.104449,0.005151,-0.009087,0.035113,-32.515961,-47.813038,32.921814,,,,,,,1
1514403877.055987,0.634490,1.440166,1.159491,0.007097,-0.750702,0.014805,0.077200,-0.991480,-0.104889,0.041407,0.170832,0.025467,-32.515961,-47.813038,32.921814,,,,,,,1
1514403877.065997,0.642283,1.439876,1.147380,0.097977,-0.325477,-0.168175,0.078187,-0.991442,-0.104515,-0.015565,0.028658,-0.046105,-32.150208,-48.121361,33.209045,,,,,,,1
1514403877.075976,0.642104,1.440673,1.143441,0.072917,-0.538962,0.101435,0.077696,-0.991546,-0.103896,-0.091230,-0.206925,0.024490,-32.150208,-48.121361,33.209045,,,,,,,1
1514403877.085955,0.610144,1.441983,1.165274,-0.022508,-1.031688,0.287313,0.073591,-0.991715,-0.105261,0.040865,0.189744,0.028204,-31.942337,-48.055145,33.761505,,,,,,,1
1514403877.095965,0.603842,1.443077,1.166212,0.121872,-0.388950,0.004857,0.072310,-0.991855,-0.104829,0.167177,0.104770,-0.039367,-31.942337,-48.055145,33.761505,,,,,,,1
1514403877.105944,0.616083,1.444501,1.151813,0.223451,-0.178279,-0.078520,0.072771,-0.992035,-0.102782,-0.035906,-0.323120,0.019286,-31.626892,-47.956852,33.882935,,,,,,,1
1514403877.115923,0.632377,1.445364,1.134751,0.186789,-0.014471,-0.140959,0.073929,-0.992144,-0.100892,-0.194886,-0.088667,0.030900,-31.626892,-47.956852,33.882935,,,,,,,1
1514403877.125933,0.652766,1.445778,1.115542,0.174745,0.178775,-0.168995,0.075721,-0.992195,-0.099037,-0.096107,0.138909,0.046684,-31.393860,-47.887466,34.084503,,,,,,,1
1514403877.135913,0.673051,1.446175,1.097127,0.172580,0.184966,-0.150789,0.077469,-0.992245,-0.097173,-0.002457,0.063961,0.029699,-31.393860,-47.887466,34.084503,,,,,,,1
1514403877.145892,0.690755,1.446480,1.079779,0.155830,-0.001425,-0.146303,0.078985,-0.992283,-0.095553,0.040064,-0.037655,0.002215,-31.336517,-47.736126,34.155670,,,,,,,1
1514403877.155902,0.705438,1.446834,1.063793,0.155233,-0.143159,-0.121267,0.080150,-0.992326,-0.094114,0.046009,-0.024672,-0.003542,-31.336517,-47.736126,34.155670,,,,,,,1
1514403877.165881,0.719704,1.447296,1.047875,0.166973,-0.149628,-0.121275,0.081182,-0.992384,-0.092616,-0.004766,-0.007571,0.010524,-31.162125,-47.670322,34.514099,,,,,,,1
1514403877.175860,0.736156,1.447748,1.030038,0.182114,-0.117339,-0.137148,0.082394,-0.992439,-0.090936,-0.037716,-0.002297,0.012994,-31.162125,-47.670322,34.514099,,,,,,,1
1514403877.185870,0.753477,1.448179,1.011440,0.185336,-0.115215,-0.137133,0.083665,-0.992492,-0.089184,-0.032960,-0.001466,0.013546,-30.902298,-47.587669,34.696533,,,,,,,1
1514403877.195849,0.770254,1.448646,0.993441,0.184275,-0.103601,-0.124247,0.084826,-0.992549,-0.087435,-0.010760,-0.001088,0.019762,-30.902298,-47.587669,34.696533,,,,,,,1
1514403877.205828,0.786474,1.449006,0.976403,0.166267,-0.054251,-0.124059,0.085979,-0.992593,-0.085795,0.000462,0.000405,0.021265,-30.819687,-47.703938,34.801819,,,,,,,1
1514403877.215838,0.802346,1.449146,0.960278,0.145069,-0.002723,-0.126005,0.087231,-0.992610,-0.084323,0.005680,0.010768,0.013049,-30.819687,-47.703938,34.801819,,,,,,,1
1514403877.225817,0.817614,1.449315,0.945056,0.147244,0.020610,-0.108784,0.088385,-0.992630,-0.082866,0.019052,0.018860,-0.001026,-30.666763,-47.567490,34.980164,,,,,,,1
1514403877.235762,0.831176,1.449657,0.931505,0.141743,0.003061,-0.076784,0.089250,-0.992672,-0.081431,0.038772,0.008449,-0.001058,-30.666763,-47.567490,34.980164,,,,,,,1
1514403877.245771,0.841624,1.450235,0.920487,0.134944,-0.071391,-0.035414,0.089668,-0.992741,-0.080112,0.053856,-0.001628,-0.001187,-30.623306,-47.357353,35.179901,,,,,,,1
1514403877.255751,0.848667,1.451172,0.912011,0.137717,-0.153457,0.012356,0.089532,-0.992854,-0.078863,0.049430,-0.007330,0.011297,-30.623306,-47.357353,35.179901,,,,,,,1
1514403877.265730,0.852637,1.452312,0.906411,0.119433,-0.154915,0.046544,0.088991,-0.992989,-0.077762,0.026289,-0.018760,0.040744,-30.420044,-47.462345,35.263702,,,,,,,1
1514403877.275740,0.854373,1.453418,0.903527,0.091779,-0.099336,0.063857,0.088297,-0.993119,-0.076886,0.007177,-0.018874,0.051831,-30.420044,-47.462345,35.263702,,,,,,,1
1514403877.285719,0.854459,1.454645,0.902857,0.087601,-0.046235,0.099384,0.087384,-0.993262,-0.076077,0.018695,-0.001825,0.036343,-30.235626,-47.064545,35.265808,,,,,,,1
1514403877.295698,0.851890,1.456435,0.905230,0.100354,-0.017258,0.171199,0.085849,-0.993468,-0.075130,0.056057,-0.001649,0.012950,-30.235626,-47.064545,35.265808,,,,,,,1
1514403877.305708,0.845867,1.458574,0.911145,0.090612,-0.015665,0.215042,0.083804,-0.993710,-0.074236,0.091138,0.001400,-0.002912,-30.679535,-47.333042,35.417267,,,,,,,1
1514403877.315687,0.837515,1.461060,0.919049,0.106367,-0.062377,0.258714,0.081345,-0.993985,-0.073279,0.091934,0.016522,-0.036950,-30.679535,-47.333042,35.417267,,,,,,,1
1514403877.325697,0.827918,1.463913,0.927817,0.124389,-0.090602,0.281081,0.078548,-0.994293,-0.072137,0.040989,0.008621,-0.059928,-30.693054,-46.849045,35.387970,,,,,,,1
1514403877.335676,0.818654,1.466621,0.936508,0.114964,-0.050658,0.260921,0.075909,-0.994579,-0.071021,0.009372,0.019924,-0.028329,-30.693054,-46.849045,35.387970,,,,,,,1
1514403877.345655,0.809281,1.469440,0.945654,0.128930,-0.022056,0.280326,0.073210,-0.994868,-0.069794,0.019884,0.024912,-0.000992,-31.068710,-46.765659,35.547485,,,,,,,1
1514403877.355665,0.797865,1.472601,0.956933,0.134200,-0.019310,0.313505,0.070156,-0.995183,-0.068428,0.022847,0.000142,0.016624,-31.068710,-46.765659,35.547485,,,,,,,1
1514403877.365644,0.782846,1.475679,0.971798,0.105273,-0.022550,0.324136,0.066959,-0.995480,-0.067301,0.009854,-0.015049,0.044734,-31.167877,-46.483273,35.677612,,,,,,,1
1514403877.375624,0.764676,1.478402,0.990125,0.064807,0.020586,0.314631,0.063847,-0.995735,-0.066549,-0.011860,-0.014870,0.076254,-31.167877,-46.483273,35.677612,,,,,,,1
1514403877.385633,0.745161,1.480915,1.010434,0.059700,0.086988,0.317058,0.060839,-0.995963,-0.065943,0.005949,0.015418,0.063196,-31.436584,-46.338669,35.659027,,,,,,,1
1514403877.395613,0.722250,1.483726,1.034442,0.073489,0.093711,0.370592,0.057459,-0.996212,-0.065215,0.060965,0.025249,0.014465,-31.436584,-46.338669,35.659027,,,,,,,1
1514403877.405592,0.692203,1.486961,1.064564,0.086763,-0.040879,0.418145,0.053415,-0.996488,-0.064430,0.091070,0.002958,-0.041543,-32.125061,-46.237625,35.636169,,,,,,,1
1514403877.415602,0.658586,1.490029,1.097458,0.064194,-0.085461,0.394375,0.049347,-0.996740,-0.063769,0.062195,-0.004465,-0.035306,-32.125061,-46.237625,35.636169,,,,,,,1
1514403877.425581,0.625285,1.492508,1.130342,0.039882,-0.038716,0.350688,0.045749,-0.996937,-0.063371,0.006513,0.018772,0.001970,-32.334412,-45.870029,35.607086,,,,,,,1
1514403877.435560,0.595051,1.494821,1.160912,0.060619,0.051551,0.323319,0.042519,-0.997115,-0.062815,-0.048791,0.027862,-0.010976,-32.334412,-45.870029,35.607086,,,,,,,1
1514403877.445570,0.567292,1.497087,1.190318,0.067610,0.189956,0.304697,0.039545,-0.997285,-0.062064,-0.059457,0.019471,-0.012124,-32.497238,-45.687435,35.498932,,,,,,,1
1514403877.455549,0.541355,1.499306,1.218863,0.078636,0.267235,0.290087,0.036780,-0.997446,-0.061169,-0.016302,0.013437,-0.007907,-32.497238,-45.687435,35.498932,,,,,,,1
1514403877.465528,0.515786,1.501421,1.247248,0.078666,0.269529,0.279401,0.034163,-0.997595,-0.060254,0.013323,0.008871,-0.009631,-32.923752,-45.513313,35.584198,,,,,,,1
1514403877.475538,0.489389,1.503189,1.275880,0.052779,0.194984,0.254422,0.031730,-0.997715,-0.059575,-0.003166,0.007008,0.014287,-32.923752,-45.513313,35.584198,,,,,,,1
1514403877.485517,0.463051,1.504544,1.303642,0.035437,0.118233,0.231587,0.029546,-0.997806,-0.059180,-0.037343,0.000431,0.045249,-33.341888,-45.630615,35.414307,,,,,,,1
1514403877.495497,0.435669,1.505673,1.331843,0.019215,0.060657,0.216327,0.027438,-0.997880,-0.058942,-0.048373,-0.017195,0.070707,-33.341888,-45.630615,35.414307,,,,,,,1
1514403877.505506,0.406912,1.506639,1.360498,0.009219,-0.045217,0.206210,0.025351,-0.997943,-0.058824,-0.023947,-0.021131,0.069428,-33.559097,-45.303890,35.564636,,,,,,,1
1514403877.515486,0.380331,1.507230,1.385944,-0.012393,-0.140828,0.153334,0.023559,-0.997980,-0.058928,-0.016754,-0.020071,0.047163,-33.559097,-45.303890,35.564636,,,,,,,1
1514403877.525465,0.362312,1.507593,1.402307,0.005831,-0.170142,0.097616,0.022365,-0.998003,-0.059004,-0.022869,-0.001127,0.011442,-33.645309,-45.201511,35.677032,,,,,,,1
1514403877.535475,0.348298,1.508280,1.415183,0.045703,-0.091065,0.100179,0.021301,-0.998047,-0.058665,-0.044113,0.012878,-0.019963,-33.645309,-45.201511,35.677032,,,,,,,1
1514403877.545454,0.339885,1.509198,1.423169,0.079167,-0.034014,0.069475,0.020500,-0.998103,-0.057973,-0.044303,0.026698,-0.054896,-33.376968,-45.046448,35.625458,,,,,,,1
1514403877.555433,0.338510,1.510436,1.424238,0.126297,-0.036013,0.044948,0.020008,-0.998179,-0.056831,-0.010670,0.041392,-0.084069,-33.376968,-45.046448,35.625458,,,,,,,1
1514403877.565443,0.340534,1.511919,1.421806,0.145613,-0.034763,0.025735,0.019627,-0.998267,-0.055391,-0.014271,0.026969,-0.074995,-33.369812,-44.957550,35.813873,,,,,,,1
1514403877.575422,0.350523,1.513385,1.411792,0.159814,0.013943,-0.015736,0.019675,-0.998352,-0.053813,-0.034644,0.015534,-0.040349,-33.369812,-44.957550,35.813873,,,,,,,1
1514403877.585401,0.364501,1.515028,1.398266,0.181357,0.058780,-0.010151,0.019839,-0.998445,-0.051996,-0.030108,0.018007,-0.024725,-33.507446,-45.111542,35.697571,,,,,,,1
1514403877.595411,0.375399,1.516680,1.388335,0.163325,0.116391,0.012537,0.019799,-0.998536,-0.050241,-0.002237,0.014466,0.015680,-33.507446,-45.111542,35.697571,,,,,,,1
1514403877.605390,0.380408,1.518098,1.385122,0.132546,0.202886,0.041748,0.019525,-0.998612,-0.048826,0.037101,0.000397,0.066633,-33.793579,-44.941761,35.912140,,,,,,,1
1514403877.615370,0.383258,1.519483,1.384870,0.132777,0.270266,0.049537,0.019146,-0.998684,-0.047487,0.036502,-0.004353,0.052873,-33.793579,-44.941761,35.912140,,,,,,,1
1514403877.625379,0.386413,1.520826,1.383929,0.128244,0.195435,0.039568,0.018790,-0.998752,-0.046181,0.012689,0.013934,0.003670,-33.771515,-44.705624,35.839294,,,,,,,1
1514403877.635359,0.390302,1.522008,1.380849,0.122342,0.042372,0.032456,0.018517,-0.998810,-0.045010,0.001227,0.014710,-0.010929,-33.771515,-44.705624,35.839294,,,,,,,1
1514403877.645338,0.381983,1.523510,1.388581,0.132330,-0.090463,0.109960,0.017582,-0.998882,-0.043768,0.026302,-0.015186,-0.015039,-33.838440,-44.725216,35.879395,,,,,,,1
1514403877.655348,0.361265,1.525174,1.407442,0.124271,-0.216258,0.146820,0.016081,-0.998959,-0.042560,0.049577,-0.019244,-0.006161,-33.838440,-44.725216,35.879395,,,,,,,1
1514403877.665327,0.327315,1.526824,1.438474,0.107723,-0.315417,0.196619,0.014097,-0.999033,-0.041519,0.066775,-0.005499,0.025375,-33.997406,-44.259747,35.894287,,,,,,,1
1514403877.675306,0.287867,1.528314,1.474770,0.089542,-0.315316,0.194448,0.012024,-0.999098,-0.040611,0.041778,-0.009981,0.064384,-33.997406,-44.259747,35.894287,,,,,,,1
1514403877.685316,0.236795,1.529856,1.523193,0.094993,-0.247550,0.251449,0.009574,-0.999162,-0.039671,0.031808,-0.009810,0.057631,-33.863510,-44.382942,36.123779,,,,,,,1
1514403877.695295,0.184728,1.531357,1.573225,0.111304,-0.202152,0.216384,0.007220,-0.999222,-0.038638,-0.013079,-0.012771,0.003726,-33.863510,-44.382942,36.123779,,,,,,,1
1514403877.705274,0.139923,1.532968,1.615911,0.138055,-0.221149,0.187467,0.005257,-0.999285,-0.037325,-0.019829,0.016344,-0.045301,-33.898361,-44.087265,36.351807,,,,,,,1
1514403877.715284,0.090838,1.534592,1.662800,0.146609,-0.220155,0.190695,0.003272,-0.999345,-0.035917,-0.036856,0.012025,-0.040530,-33.898361,-44.087265,36.351807,,,,,,,1
1514403877.725263,0.043340,1.536267,1.708368,0.162848,-0.187742,0.165199,0.001490,-0.999404,-0.034348,-0.023279,0.003768,-0.014449,-33.785812,-43.918018,36.562866,,,,,,,1
1514403877.735243,-0.000642,1.537999,1.750562,0.173621,-0.182156,0.144920,-0.000021,-0.999462,-0.032647,0.005285,0.011852,-0.025871,-33.785812,-43.918018,36.562866,,,,,,,1
1514403877.745253,-0.038735,1.539785,1.786867,0.182302,-0.178429,0.104307,-0.001195,-0.999519,-0.030833,-0.020305,0.024956,-0.034444,-33.783859,-43.552170,36.736084,,,,,,,1
1514403877.755232,-0.064843,1.541751,1.811397,0.203937,-0.148947,0.056345,-0.001871,-0.999578,-0.028818,-0.061682,0.015615,0.009333,-33.783859,-43.552170,36.736084,,,,,,,1
1514403877.765211,-0.083589,1.544003,1.828756,0.235069,-0.141185,0.027556,-0.002222,-0.999641,-0.026517,-0.072851,-0.018074,0.044141,-33.583771,-43.399609,36.927094,,,,,,,1
1514403877.775221,-0.091062,1.546533,1.834507,0.260729,-0.181314,-0.022849,-0.002188,-0.999706,-0.023957,-0.061152,-0.031865,0.023210,-33.583771,-43.399609,36.927094,,,,,,,1
1514403877.785200,-0.068490,1.549201,1.809891,0.267247,-0.208197,-0.096760,-0.001462,-0.999767,-0.021318,-0.059405,-0.015309,-0.027419,-33.512787,-43.295639,37.249512,,,,,,,1
1514403877.795179,-0.003472,1.551884,1.742900,0.271796,-0.180601,-0.158665,-0.000065,-0.999821,-0.018649,-0.072247,0.032185,-0.072583,-33.512787,-43.295639,37.249512,,,,,,,1
1514403877.805189,0.106211,1.554378,1.631549,0.262352,-0.153403,-0.187439,0.001707,-0.999865,-0.016011,-0.060102,0.056018,-0.061854,-33.414368,-43.180573,37.559906,,,,,,,1
1514403877.815168,0.265621,1.556334,1.470488,0.236739,-0.149843,-0.205651,0.003701,-0.999895,-0.013605,-0.026040,0.026888,-0.007880,-33.414368,-43.180573,37.559906,,,,,,,1
1514403877.825148,0.465699,1.557487,1.268934,0.201515,-0.134591,-0.214202,0.005800,-0.999911,-0.011541,-0.001223,0.001529,0.054739,-33.090805,-43.117264,37.975494,,,,,,,1
1514403877.835157,0.678071,1.557814,1.055308,0.166325,-0.105501,-0.216273,0.007894,-0.999916,-0.009800,-0.005452,-0.004555,0.100910,-33.090805,-43.117264,37.975494,,,,,,,1
1514403877.845137,0.881214,1.557267,0.851647,0.136666,-0.038707,-0.235280,0.010140,-0.999908,-0.008362,-0.012047,-0.002167,0.120331,-32.681580,-43.164448,38.000275,,,,,,,1
1514403877.855116,1.054525,1.555995,0.677839,0.119502,-0.062002,-0.250388,0.012558,-0.999890,-0.007128,-0.015717,0.001859,0.078921,-32.681580,-43.164448,38.000275,,,,,,,1
1514403877.865126,1.185393,1.554170,0.546300,0.098078,-0.077807,-0.263332,0.015118,-0.999862,-0.006133,-0.018185,0.013641,0.040038,-32.548386,-43.198730,38.139740,,,,,,,1
1514403877.875105,1.278181,1.552133,0.452502,0.092534,-0.120803,-0.250699,0.017611,-0.999826,-0.005306,0.006864,0.025064,0.009837,-32.548386,-43.198730,38.139740,,,,,,,1
1514403877.885084,1.355958,1.550352,0.372907,0.113480,-0.210418,-0.205069,0.019732,-0.999791,-0.004306,0.036878,0.009038,-0.035871,-32.330414,-43.177883,38.258240,,,,,,,1
1514403877.895094,1.422670,1.549028,0.303346,0.120431,-0.311925,-0.146683,0.021305,-0.999763,-0.003179,0.059032,-0.002480,-0.040141,-32.330414,-43.177883,38.258240,,,,,,,1
1514403877.905073,1.477297,1.548049,0.245255,0.108406,-0.349941,-0.104090,0.022431,-0.999741,-0.002103,0.067565,-0.000930,0.007429,-31.967636,-43.259388,38.373901,,,,,,,1
1514403877.915052,1.522853,1.547304,0.196452,0.099900,-0.318104,-0.079362,0.023259,-0.999724,-0.001116,0.053187,-0.007142,0.065539,-31.967636,-43.259388,38.373901,,,,,,,1
1514403877.925062,1.563519,1.546613,0.152764,0.094626,-0.293516,-0.073914,0.023982,-0.999708,-0.000175,0.018666,-0.014224,0.044959,-31.554352,-43.204041,38.620544,,,,,,,1
1514403877.935041,1.601263,1.545844,0.112756,0.091797,-0.197002,-0.080975,0.024744,-0.999689,0.000754,-0.015101,-0.008749,0.016992,-31.554352,-43.204041,38.620544,,,,,,,1
1514403877.945021,1.633613,1.544976,0.079557,0.085932,-0.050204,-0.082468,0.025574,-0.999667,0.001609,-0.020401,0.024127,0.007409,-31.489731,-43.238113,38.778015,,,,,,,1
1514403877.955030,1.669161,1.544247,0.043939,0.099974,0.002980,-0.058675,0.026220,-0.999648,0.002587,-0.000035,0.026457,-0.008340,-31.489731,-43.238113,38.778015,,,,,,,1
1514403877.965010,1.699621,1.543837,0.013383,0.081601,-0.017846,-0.018156,0.026542,-0.999637,0.003438,0.038827,-0.002545,0.002131,-31.177139,-43.477543,39.010315,,,,,,,1
1514403877.974989,1.720812,1.543880,-0.008216,0.054637,-0.044050,0.026603,0.026422,-0.999638,0.003994,0.063086,-0.011562,0.020161,-31.177139,-43.477543,39.010315,,,,,,,1
1514403877.984999,1.740576,1.544225,-0.028373,0.044968,-0.035802,0.053363,0.025992,-0.999647,0.004456,0.053796,-0.008593,0.025238,-31.358582,-43.183754,39.116302,,,,,,,1
1514403877.994978,1.760702,1.544866,-0.048627,0.034310,-0.004014,0.082365,0.025265,-0.999664,0.004857,0.027652,-0.004059,0.026882,-31.358582,-43.183754,39.116302,,,,,,,1
1514403878.004957,1.782721,1.545699,-0.070367,0.035490,0.037543,0.098596,0.024334,-0.999685,0.005236,0.003926,-0.010264,0.024763,-31.266510,-43.052048,39.010925,,,,,,,1
1514403878.014967,1.811656,1.546714,-0.098973,0.046085,0.028586,0.124245,0.023170,-0.999710,0.005691,0.012368,-0.015839,0.015717,-31.266510,-43.052048,39.010925,,,,,,,1
1514403878.024946,1.846253,1.548084,-0.133668,0.039376,-0.021194,0.163586,0.021622,-0.999742,0.006111,0.045196,-0.005873,0.009437,-31.434952,-43.050003,39.086792,,,,,,,1
1514403878.034925,1.881694,1.549764,-0.169737,0.021991,-0.072913,0.191134,0.019775,-0.999779,0.006354,0.066681,0.019920,0.000299,-31.434952,-43.050003,39.086792,,,,,,,1
1514403878.044935,1.922778,1.551464,-0.211660,0.026245,-0.079339,0.190043,0.017885,-0.999813,0.006569,0.044813,0.038311,-0.022560,-31.532562,-42.843582,39.202087,,,,,,,1
1514403878.054914,1.983116,1.552976,-0.272012,0.050217,0.035221,0.187388,0.016049,-0.999841,0.007020,0.010745,0.038095,-0.042084,-31.532562,-42.843582,39.202087,,,,,,,1
1514403878.064894,2.060862,1.554375,-0.348834,0.052582,0.095176,0.188730,0.014203,-0.999865,0.007577,0.008655,0.020617,-0.035638,-31.563950,-42.826763,39.119446,,,,,,,1
1514403878.074903,2.150093,1.555780,-0.437407,0.040638,0.053348,0.196009,0.012281,-0.999887,0.008034,0.016680,-0.012366,-0.018135,-31.563950,-42.826763,39.119446,,,,,,,1
1514403878.084883,2.253314,1.557127,-0.540255,0.030920,0.030864,0.198031,0.010316,-0.999907,0.008386,0.013228,-0.030642,0.020606,-31.780838,-42.626835,39.130035,,,,,,,1
1514403878.094862,2.371878,1.558389,-0.658660,0.017980,0.004123,0.198958,0.008345,-0.999923,0.008611,0.004732,-0.013062,0.048625,-31.780838,-42.626835,39.130035,,,,,,,1
1514403878.104872,2.500135,1.559564,-0.786824,-0.002311,0.005416,0.188233,0.006448,-0.999937,0.008634,-0.010553,0.007810,0.061541,-32.204666,-42.581459,39.101196,,,,,,,1
1514403878.114851,2.627736,1.560561,-0.913782,-0.021250,0.074347,0.166046,0.004778,-0.999948,0.008466,-0.030535,0.021081,0.066638,-32.204666,-42.581459,39.101196,,,,,,,1
1514403878.124830,2.751333,1.561373,-1.036038,-0.028426,0.135848,0.135290,0.003370,-0.999956,0.008193,-0.051176,0.016710,0.054810,-32.407974,-42.517021,38.961761,,,,,,,1
1514403878.134840,2.873186,1.561946,-1.156266,-0.020832,0.151058,0.117188,0.002184,-0.999961,0.007941,-0.048540,0.006400,0.035882,-32.407974,-42.517021,38.961761,,,,,,,1
1514403878.144819,3.017598,1.562310,-1.299228,-0.011344,0.118786,0.124548,0.000970,-0.999964,0.007783,-0.011773,0.002756,0.013320,-32.378342,-42.527046,39.019196,,,,,,,1
1514403878.154798,-3.094142,1.562425,-1.469868,-0.005232,0.045752,0.137067,-0.000366,-0.999965,0.007700,0.022643,-0.005635,-0.014032,-32.378342,-42.527046,39.019196,,,,,,,1
1514403878.164808,-2.918481,1.562190,-1.645318,0.008515,0.005990,0.142262,-0.001761,-0.999963,0.007760,0.030523,-0.004416,-0.044518,-32.744751,-42.352482,38.803864,,,,,,,1
1514403878.174787,-2.761051,1.561542,-1.802822,0.028734,-0.018799,0.147534,-0.003207,-0.999957,0.008017,0.021838,-0.000745,-0.064124,-32.744751,-42.352482,38.803864,,,,,,,1
1514403878.184767,-2.628970,1.560532,-1.935421,0.042463,-0.057570,0.159151,-0.004761,-0.999947,0.008459,0.024795,-0.015540,-0.051702,-32.727905,-42.323051,38.862854,,,,,,,1
1514403878.194776,-2.510508,1.559363,-2.054966,0.028312,-0.114442,0.170637,-0.006457,-0.999935,0.008836,0.038211,-0.002675,-0.010454,-32.727905,-42.323051,38.862854,,,,,,,1
1514403878.204756,-2.408914,1.558252,-2.157947,0.007970,-0.128131,0.158775,-0.008098,-0.999921,0.009000,0.015193,0.022352,0.028796,-32.810074,-42.374920,39.020813,,,,,,,1
1514403878.214735,-2.339128,1.557350,-2.228475,0.000912,-0.047120,0.110993,-0.009365,-0.999910,0.009051,-0.036976,0.032075,0.059370,-32.810074,-42.374920,39.020813,,,,,,,1
1514403878.224745,-2.303929,1.557027,-2.263573,-0.011491,0.026610,0.049263,-0.009934,-0.999905,0.008946,-0.065368,0.033566,0.068660,-32.687180,-42.340080,38.926422,,,,,,,1
1514403878.234724,-2.256381,1.556559,-2.310647,-0.018980,0.055028,0.088952,-0.010721,-0.999899,0.008769,-0.050909,0.012335,0.036824,-32.687180,-42.340080,38.926422,,,,,,,1
1514403878.244701,-2.217701,1.556241,-2.348809,-0.016717,0.057703,0.048324,-0.011317,-0.999894,0.008548,-0.041188,-0.011581,0.024411,-32.783966,-42.437752,39.040680,,,,,,,1
1514403878.254711,-2.186988,1.556016,-2.379070,-0.017862,0.040512,0.052523,-0.011766,-0.999891,0.008332,0.006425,-0.006213,0.018630,-32.783966,-42.437752,39.040680,,,,,,,1
1514403878.264690,-2.152229,1.555633,-2.413655,-0.015843,0.014664,0.062038,-0.012372,-0.999885,0.008131,0.006010,-0.002312,-0.025114,-33.045212,-42.231636,38.898987,,,,,,,1
1514403878.274669,-2.125088,1.555260,-2.440719,-0.013715,0.008287,0.057735,-0.012912,-0.999879,0.007993,0.012363,0.015291,-0.022092,-33.045212,-42.231636,38.898987,,,,,,,1
1514403878.284679,-2.096158,1.554770,-2.469734,-0.015952,-0.007942,0.070493,-0.013573,-0.999872,0.007868,0.015099,0.005639,-0.004069,-32.950562,-42.260651,39.040100,,,,,,,1
1514403878.294658,-2.063189,1.554279,-2.502735,-0.028736,0.003934,0.067315,-0.014270,-0.999864,0.007656,0.006122,0.005067,0.015339,-32.950562,-42.260651,39.040100,,,,,,,1
1514403878.304638,-2.027926,1.553793,-2.537882,-0.034031,0.020011,0.068447,-0.014987,-0.999855,0.007372,-0.000592,0.003777,0.026442,-33.159119,-41.979538,38.717072,,,,,,,1
1514403878.314647,-1.989143,1.553317,-2.576449,-0.042579,0.024301,0.070590,-0.015713,-0.999847,0.006986,-0.001132,-0.007065,0.037249,-33.159119,-41.979538,38.717072,,,,,,,1
1514403878.324627,-1.944233,1.552882,-2.621076,-0.059632,0.038334,0.067415,-0.016431,-0.999840,0.006438,0.001142,0.005623,0.048356,-33.267273,-42.103100,38.850739,,,,,,,1
1514403878.334606,-1.901376,1.552557,-2.663373,-0.060576,0.062090,0.053614,-0.017005,-0.999834,0.005836,-0.010049,0.011461,0.037255,-33.267273,-42.103100,38.850739,,,,,,,1
1514403878.344616,-1.861288,1.552331,-2.702827,-0.058387,0.065482,0.039729,-0.017448,-0.999830,0.005216,-0.017571,0.009076,0.014041,-33.345169,-42.366116,38.744812,,,,,,,1
1514403878.354595,-1.825949,1.552208,-2.737745,-0.055259,0.034580,0.026761,-0.017750,-0.999827,0.004630,-0.007900,0.010905,0.007867,-33.345169,-42.366116,38.744812,,,,,,,1
1514403878.364574,-1.796542,1.552379,-2.767184,-0.052182,-0.020738,-0.002360,-0.017710,-0.999830,0.004067,0.004480,0.008635,0.002006,-33.275024,-42.172501,38.714813,,,,,,,1
1514403878.374584,-1.767521,1.552270,-2.796737,-0.053465,-0.058583,0.024208,-0.017934,-0.999828,0.003574,-0.004619,0.007732,-0.020328,-33.275024,-42.172501,38.714813,,,,,,,1
1514403878.384563,-1.744492,1.552596,-2.820400,-0.047933,-0.058772,-0.043167,-0.017685,-0.999834,0.003103,-0.046661,0.013171,-0.002111,-33.269104,-42.333076,38.726196,,,,,,,1
1514403878.394542,-1.726574,1.553277,-2.838791,-0.046756,-0.044578,-0.063424,-0.017061,-0.999847,0.002679,-0.043638,0.012130,0.029852,-33.269104,-42.333076,38.726196,,,,,,,1
1514403878.404552,-1.708025,1.554029,-2.857686,-0.045600,-0.030502,-0.075125,-0.016360,-0.999859,0.002259,-0.043530,-0.000385,0.021010,-33.276810,-42.353363,38.642853,,,,,,,1
1514403878.414532,-1.690278,1.554839,-2.875747,-0.042395,-0.031586,-0.075124,-0.015585,-0.999873,0.001871,-0.015498,-0.002737,0.017950,-33.276810,-42.353363,38.642853,,,,,,,1
1514403878.424511,-1.666905,1.555359,-2.899363,-0.042449,-0.020277,-0.039777,-0.015103,-0.999881,0.001456,0.013425,-0.004132,0.006173,-33.223511,-42.462204,38.673492,,,,,,,1
1514403878.434521,-1.642723,1.555493,-2.923597,-0.036054,0.001659,-0.000092,-0.015008,-0.999883,0.001081,0.037758,0.001012,-0.003553,-33.223511,-42.462204,38.673492,,,,,,,1
1514403878.444500,-1.621191,1.555186,-2.944858,-0.030700,0.037443,0.046069,-0.015338,-0.999878,0.000774,0.056705,0.003556,-0.002055,-33.149933,-42.509319,38.751892,,,,,,,1
1514403878.454479,-1.595793,1.554458,-2.969436,-0.034853,0.095911,0.080550,-0.016083,-0.999867,0.000402,0.055893,0.006168,0.002940,-33.149933,-42.509319,38.751892,,,,,,,1
1514403878.464489,-1.572845,1.553502,-2.991267,-0.033737,0.120311,0.097775,-0.017048,-0.999850,0.000035,0.044987,0.010333,-0.004872,-33.014236,-42.558125,38.573975,,,,,,,1
1514403878.474468,-1.557654,1.552262,-3.004882,-0.025070,0.173388,0.131185,-0.018308,-0.999828,-0.000241,0.032759,0.001110,-0.015522,-33.386246,-42.372009,38.607605,,,,,,,1
1514403878.484447,-1.546874,1.550850,-3.013998,-0.020854,0.162509,0.141840,-0.019732,-0.999801,-0.000472,0.033282,-0.005707,-0.009141,-33.386246,-42.372009,38.607605,,,,,,,1
1514403878.494457,-1.537026,1.549501,-3.022594,-0.022071,0.115528,0.130932,-0.021081,-0.999773,-0.000712,0.024255,0.004198,-0.005712,-33.715958,-42.480118,38.387665,,,,,,,1
1514403878.504436,-1.528282,1.548372,-3.030307,-0.022063,0.102983,0.108414,-0.022209,-0.999749,-0.000945,-0.011208,0.006768,0.004958,-33.715958,-42.480118,38.387665,,,,,,,1
1514403878.514416,-1.519703,1.547648,-3.037850,-0.020871,0.102526,0.062421,-0.022926,-0.999732,-0.001172,-0.035302,0.009925,0.011014,-33.789490,-42.350742,38.149048,,,,,,,1
1514403878.524425,-1.511785,1.547099,-3.044887,-0.019860,0.084337,0.060203,-0.023462,-0.999719,-0.001386,-0.028784,0.016183,0.005079,-33.789490,-42.350742,38.149048,,,,,,,1
1514403878.534405,-1.501055,1.546685,-3.054959,-0.028432,0.062223,0.034419,-0.023862,-0.999709,-0.001667,-0.035098,0.007262,0.003910,-33.940399,-42.318451,38.321625,,,,,,,1
1514403878.544384,-1.488391,1.546635,-3.066941,-0.030449,0.071264,0.000228,-0.023890,-0.999708,-0.001973,-0.033727,0.004393,0.027608,-33.940399,-42.318451,38.321625,,,,,,,1
1514403878.554394,-1.473015,1.546693,-3.081598,-0.034689,0.074624,-0.009391,-0.023804,-0.999710,-0.002335,-0.033386,0.000656,0.037400,-33.861343,-42.322575,38.143890,,,,,,,1
1514403878.564373,-1.453577,1.546909,-3.100284,-0.044256,0.075987,-0.028654,-0.023542,-0.999715,-0.002772,-0.028399,0.001637,0.039195,-33.861343,-42.322575,38.143890,,,,,,,1
1514403878.574352,-1.428940,1.547257,-3.124165,-0.051703,0.077275,-0.042566,-0.023125,-0.999723,-0.003303,-0.020149,0.006422,0.038077,-33.847321,-42.475807,38.036163,,,,,,,1
1514403878.584362,-1.403499,1.547661,3.134322,-0.049554,0.074170,-0.051133,-0.022633,-0.999732,-0.003822,-0.017131,0.003791,0.029838,-33.847321,-42.475807,38.036163,,,,,,,1
1514403878.594341,-1.377873,1.548101,3.109284,-0.048552,0.052801,-0.055505,-0.022099,-0.999742,-0.004317,-0.011425,0.000399,0.014006,-33.868668,-42.534821,38.172760,,,,,,,1
1514403878.604320,-1.354077,1.548529,3.085719,-0.041212,0.015239,-0.052451,-0.021572,-0.999752,-0.004750,0.003048,0.002377,-0.006282,-33.868668,-42.534821,38.172760,,,,,,,1
1514403878.614330,-1.333477,1.548842,3.064997,-0.037093,-0.019212,-0.040832,-0.021166,-0.999759,-0.005120,0.017214,0.006320,-0.021324,-33.924515,-42.393929,38.100952,,,,,,,1
1514403878.624309,-1.317722,1.549081,3.048786,-0.027608,-0.050442,-0.031329,-0.020856,-0.999764,-0.005394,0.023283,0.008431,-0.027001,-33.924515,-42.393929,38.100952,,,,,,,1
1514403878.634289,-1.306692,1.549228,3.037202,-0.020160,-0.052772,-0.019560,-0.020659,-0.999767,-0.005587,0.019789,0.007107,-0.017225,-34.021210,-42.520561,38.032623,,,,,,,1
1514403878.644298,-1.300432,1.549302,3.030553,-0.013693,-0.035765,-0.011986,-0.020555,-0.999769,-0.005697,0.012864,-0.000414,0.002752,-34.021210,-42.520561,38.032623,,,,,,,1
1514403878.654278,-1.290403,1.549450,3.020130,-0.020086,-0.038766,-0.025915,-0.020349,-0.999772,-0.005860,0.001215,0.000657,0.016480,-33.936447,-42.768379,38.101685,,,,,,,1
1514403878.664257,-1.280306,1.549716,3.009861,-0.011398,-0.009763,-0.034327,-0.020035,-0.999778,-0.005989,-0.017898,0.005485,0.012245,-33.936447,-42.768379,38.101685,,,,,,,1
1514403878.674267,-1.271019,1.550060,3.000582,-0.008122,0.004221,-0.039607,-0.019646,-0.999785,-0.006073,-0.018287,0.006560,0.006836,-33.861130,-42.404751,38.087311,,,,,,,1
1514403878.684246,-1.260811,1.550362,2.990469,-0.009181,0.012712,-0.033153,-0.019293,-0.999791,-0.006180,-0.000818,0.004567,-0.000076,-33.861130,-42.404751,38.087311,,,,,,,1
1514403878.694225,-1.254875,1.550586,2.984718,-0.001701,0.018951,-0.021347,-0.019038,-0.999796,-0.006223,0.019648,0.004663,-0.004504,-33.762634,-42.581810,38.122650,,,,,,,1
1514403878.704235,-1.251456,1.550648,2.981339,-0.001813,0.001567,-0.003241,-0.018955,-0.999797,-0.006268,0.028614,0.005748,-0.012363,-33.762634,-42.581810,38.122650,,,,,,,1
1514403878.714214,-1.251244,1.550625,2.981206,0.001416,0.013222,0.005373,-0.018981,-0.999797,-0.006281,0.018737,0.005564,-0.012823,-33.770630,-42.335579,38.020447,,,,,,,1
1514403878.724193,-1.255128,1.550496,2.985291,0.004612,0.019448,0.019311,-0.019129,-0.999794,-0.006247,0.016733,0.005516,-0.006051,-33.770630,-42.335579,38.020447,,,,,,,1
1514403878.734203,-1.263944,1.550248,2.994312,0.009929,0.019269,0.031085,-0.019417,-0.999789,-0.006153,0.017724,0.001589,-0.006222,-33.748596,-42.484261,37.964874,,,,,,,1
1514403878.744182,-1.275704,1.549871,3.006229,0.012010,0.014759,0.047113,-0.019850,-0.999781,-0.006034,0.022337,0.003550,-0.003518,-33.748596,-42.484261,37.964874,,,,,,,1
1514403878.754162,-1.289919,1.549367,3.020572,0.014105,0.011379,0.058867,-0.020421,-0.999770,-0.005891,0.019994,0.002044,0.000398,-33.922287,-42.688702,38.096863,,,,,,,1
1514403878.764171,-1.306631,1.548832,3.037338,0.021555,0.003792,0.063125,-0.021047,-0.999759,-0.005693,0.012258,0.000690,0.000932,-33.922287,-42.688702,38.096863,,,,,,,1
1514403878.774151,-1.324105,1.548272,3.054731,0.022557,-0.011265,0.067338,-0.021696,-0.999746,-0.005463,0.008085,0.002676,-0.001098,-33.822327,-42.344173,37.918945,,,,,,,1
1514403878.784130,-1.340137,1.547707,3.070495,0.020334,-0.032658,0.066168,-0.022339,-0.999733,-0.005246,0.005462,0.002968,0.006192,-33.822327,-42.344173,37.918945,,,,,,,1
1514403878.794140,-1.353214,1.547182,3.083175,0.018198,-0.037890,0.057584,-0.022925,-0.999721,-0.005068,-0.002359,0.002666,0.010378,-33.852295,-42.194027,38.012939,,,,,,,1
1514403878.804119,-1.365297,1.546789,3.094970,0.019362,-0.024827,0.041601,-0.023377,-0.999712,-0.004873,-0.014602,0.005297,0.011251,-33.852295,-42.194027,38.012939,,,,,,,1
1514403878.814098,-1.372996,1.546562,3.102454,0.014033,-0.027861,0.029812,-0.023636,-0.999706,-0.004737,-0.010498,0.011074,0.016044,-34.153610,-42.152367,38.013397,,,,,,,1
1514403878.824108,-1.381907,1.546121,3.111144,0.011872,-0.020600,0.048024,-0.024118,-0.999696,-0.004611,-0.005850,0.003205,0.009173,-34.153610,-42.152367,38.013397,,,,,,,1
1514403878.834087,-1.389154,1.545951,3.118220,0.014125,-0.012693,0.017045,-0.024317,-0.999691,-0.004466,-0.012228,0.003247,0.017009,-34.016953,-42.255726,38.012299,,,,,,,1
1514403878.844066,-1.396724,1.545684,3.125660,0.013004,-0.013990,0.034151,-0.024612,-0.999685,-0.004328,-0.002274,0.004766,0.010203,-34.016953,-42.255726,38.012299,,,,,,,1
1514403878.854076,-1.405659,1.545484,3.134403,0.019427,-0.021355,0.022364,-0.024846,-0.999680,-0.004141,-0.003505,0.001663,-0.002390,-33.853210,-42.202286,37.913025,,,,,,,1
1514403878.864055,-1.415880,1.545188,-3.138812,0.020442,-0.024790,0.038394,-0.025183,-0.999672,-0.003933,0.012320,0.004265,-0.004292,-33.853210,-42.202286,37.913025,,,,,,,1
1514403878.874035,-1.428444,1.544796,-3.126580,0.023594,-0.035600,0.044769,-0.025626,-0.999662,-0.003673,0.014090,0.002286,-0.007268,-33.808212,-42.136986,38.219543,,,,,,,1
1514403878.884044,-1.439820,1.544330,-3.115601,0.020354,-0.038886,0.051166,-0.026131,-0.999650,-0.003442,0.015465,0.007218,0.000467,-33.808212,-42.136986,38.219543,,,,,,,1
1514403878.894024,-1.449395,1.543848,-3.106267,0.016152,-0.019560,0.049106,-0.026642,-0.999637,-0.003250,0.004288,0.007587,0.013489,-33.965500,-42.085861,38.160828,,,,,,,1
1514403878.904003,-1.456133,1.543420,-3.099574,0.010903,0.003044,0.042780,-0.027092,-0.999625,-0.003120,-0.007790,0.006431,0.023674,-33.965500,-42.085861,38.160828,,,,,,,1
1514403878.914013,-1.461736,1.543037,-3.093839,0.009890,0.015944,0.039627,-0.027493,-0.999615,-0.003010,-0.012713,0.002834,0.025548,-34.046448,-42.373547,38.261017,,,,,,,1
1514403878.923992,-1.466409,1.542665,-3.089049,0.007730,0.008464,0.038520,-0.027877,-0.999604,-0.002921,-0.005768,0.002931,0.025488,-34.046448,-42.373547,38.261017,,,,,,,1
1514403878.933971,-1.470285,1.542288,-3.085218,0.006608,-0.006514,0.037382,-0.028261,-0.999594,-0.002850,0.000124,-0.000208,0.023266,-34.398621,-42.283096,38.155426,,,,,,,1
1514403878.943981,-1.474449,1.542041,-3.081196,0.008762,-0.015936,0.020230,-0.028519,-0.999587,-0.002756,-0.001724,0.002074,0.008387,-34.398621,-42.283096,38.155426,,,,,,,1
1514403878.953960,-1.481263,1.541812,-3.074789,0.018235,-0.045125,0.037230,-0.028770,-0.999580,-0.002583,0.006461,0.010841,-0.010235,-34.197205,-42.114113,38.201538,,,,,,,1
1514403878.963939,-1.489693,1.541459,-3.066924,0.020307,-0.065405,0.031795,-0.029147,-0.999570,-0.002369,-0.001325,0.008572,-0.022945,-34.197205,-42.114113,38.201538,,,,,,,1
1514403878.973949,-1.499559,1.541358,-3.057771,0.025681,-0.071609,0.013593,-0.029275,-0.999567,-0.002089,0.000329,0.013498,-0.007204,-34.088608,-42.153854,38.250519,,,,,,,1
1514403878.983928,-1.508784,1.541214,-3.049358,0.023501,-0.083386,0.013537,-0.029442,-0.999562,-0.001828,-0.004494,0.008016,-0.003757,-34.088608,-42.153854,38.250519,,,,,,,1
1514403878.993908,-1.517470,1.541296,-3.041586,0.020329,-0.092654,-0.013250,-0.029382,-0.999565,-0.001568,-0.012855,0.006965,0.011197,-33.910995,-42.010860,38.293854,,,,,,,1
1514403879.003917,-1.522928,1.541643,-3.037110,0.014998,-0.101963,-0.035763,-0.029044,-0.999575,-0.001391,-0.016687,0.005648,0.032962,-33.910995,-42.010860,38.293854,,,,,,,1
1514403879.013897,-1.526800,1.541983,-3.034035,0.006558,-0.071908,-0.037782,-0.028710,-0.999585,-0.001264,-0.033729,-0.001331,0.031965,-33.781006,-42.037666,38.503662,,,,,,,1
1514403879.023876,-1.528324,1.542700,-3.032982,0.005752,-0.034888,-0.082541,-0.027999,-0.999605,-0.001190,-0.050385,0.004870,0.040207,-33.781006,-42.037666,38.503662,,,,,,,1
1514403879.033886,-1.527772,1.543544,-3.033571,0.000536,0.001537,-0.081318,-0.027155,-0.999629,-0.001169,-0.031637,0.007594,0.035059,-33.832230,-42.063034,38.451599,,,,,,,1
1514403879.043865,-1.526911,1.544350,-3.034404,0.002670,0.000460,-0.081319,-0.026352,-0.999650,-0.001157,-0.010040,0.000276,0.011869,-33.832230,-42.063034,38.451599,,,,,,,1
1514403879.053844,-1.523997,1.545034,-3.037465,-0.007072,-0.016884,-0.063231,-0.025665,-0.999668,-0.001202,0.019256,0.005878,0.003689,-33.629486,-42.271107,38.430084,,,,,,,1
1514403879.063854,-1.520956,1.545499,-3.040615,-0.003881,-0.008590,-0.043935,-0.025193,-0.999680,-0.001257,0.023850,0.004471,0.002111,-33.629486,-42.271107,38.430084,,,,,,,1
1514403879.073833,-1.518965,1.545839,-3.042592,-0.002785,0.006258,-0.033171,-0.024851,-0.999689,-0.001289,0.021433,0.005746,-0.001747,-33.559692,-42.264526,38.359528,,,,,,,1
1514403879.083813,-1.517619,1.546036,-3.043805,-0.004938,0.013564,-0.018168,-0.024650,-0.999693,-0.001312,0.019325,0.002623,-0.003266,-33.559692,-42.264526,38.359528,,,,,,,1
1514403879.093822,-1.514902,1.546126,-3.046345,-0.008155,0.017746,-0.009598,-0.024560,-0.999696,-0.001374,0.016717,0.002854,0.000916,-33.600052,-42.111008,38.339905,,,,,,,1
1514403879.103802,-1.512206,1.546164,-3.048789,-0.008127,0.027360,-0.007416,-0.024518,-0.999697,-0.001438,0.008267,0.002947,0.008717,-33.600052,-42.111008,38.339905,,,,,,,1
1514403879.113781,-1.507512,1.546248,-3.053206,-0.013456,0.029581,-0.011694,-0.024432,-0.999699,-0.001548,-0.004331,0.002903,0.014793,-33.664490,-42.114208,38.415039,,,,,,,1
1514403879.123791,-1.500866,1.546413,-3.059554,-0.015573,0.029687,-0.019184,-0.024257,-0.999703,-0.001699,-0.009358,0.003807,0.018087,-33.664490,-42.114208,38.415039,,,,,,,1
1514403879.133770,-1.491697,1.546652,-3.068375,-0.020876,0.037293,-0.025577,-0.024007,-0.999709,-0.001903,-0.011562,0.004774,0.016170,-33.754700,-42.290516,38.182037,,,,,,,1
1514403879.143749,-1.481151,1.546951,-3.078532,-0.020848,0.041652,-0.030905,-0.023689,-0.999716,-0.002129,-0.010658,0.006826,0.014031,-33.754700,-42.290516,38.182037,,,,,,,1
1514403879.153759,-1.470565,1.547257,-3.088647,-0.021898,0.047012,-0.030883,-0.023362,-0.999723,-0.002349,-0.006439,0.005598,0.011261,-33.830383,-42.450932,38.261475,,,,,,,1
1514403879.163738,-1.458908,1.547540,-3.099866,-0.022991,0.042687,-0.027696,-0.023052,-0.999730,-0.002590,-0.000385,0.003712,0.010891,-33.830383,-42.450932,38.261475,,,,,,,1
1514403879.173717,-1.448651,1.547747,-3.109711,-0.020876,0.041507,-0.020210,-0.022819,-0.999734,-0.002801,0.007622,0.003183,0.008889,-33.767639,-42.264420,38.307892,,,,,,,1
1514403879.183727,-1.439670,1.547869,-3.118371,-0.017744,0.029590,-0.010632,-0.022676,-0.999737,-0.002991,0.013384,0.003338,0.004120,-33.767639,-42.264420,38.307892,,,,,,,1
1514403879.193706,-1.432897,1.547913,-3.124876,-0.014554,0.027377,-0.006358,-0.022610,-0.999738,-0.003138,0.010617,0.003355,-0.000112,-33.793381,-42.126751,38.266937,,,,,,,1
1514403879.203686,-1.426947,1.547909,-3.130546,-0.014570,0.027289,0.000059,-0.022595,-0.999738,-0.003273,0.008817,0.005079,-0.003136,-33.793381,-42.126751,38.266937,,,,,,,1
1514403879.213695,-1.421139,1.547849,-3.136185,-0.014630,0.014378,0.004280,-0.022635,-0.999737,-0.003413,0.008368,0.006634,-0.002278,-33.848740,-42.384109,38.291962,,,,,,,1
1514403879.223675,-1.415367,1.547756,3.141360,-0.017856,0.012188,0.008543,-0.022711,-0.999735,-0.003559,0.007513,0.005884,0.001834,-33.848740,-42.384109,38.291962,,,,,,,1
1514403879.233654,-1.409177,1.547617,3.135240,-0.016812,0.006799,0.010660,-0.022821,-0.999731,-0.003721,0.006266,0.005484,0.005842,-33.853622,-42.404751,38.194519,,,,,,,1
1514403879.243652,-1.402232,1.547432,3.128334,-0.020054,0.002440,0.017053,-0.022976,-0.999727,-0.003910,0.006939,0.005205,0.006886,-33.853622,-42.404751,38.194519,,,,,,,1
1514403879.253631,-1.395322,1.547233,3.121396,-0.021151,-0.005054,0.017017,-0.023147,-0.999722,-0.004104,0.007217,0.002316,0.007949,-33.792313,-42.391266,38.347626,,,,,,,1
1514403879.263610,-1.388676,1.547010,3.114620,-0.019059,-0.013702,0.022330,-0.023341,-0.999717,-0.004298,0.005290,0.002281,0.006038,-33.792313,-42.391266,38.347626,,,,,,,1
1514403879.273620,-1.383344,1.546766,3.109110,-0.016938,-0.018010,0.023384,-0.023558,-0.999711,-0.004468,0.003890,0.004243,0.003782,-33.910690,-42.313499,38.192078,,,,,,,1
1514403879.283599,-1.378695,1.546534,3.104215,-0.015890,-0.026542,0.020139,-0.023765,-0.999706,-0.004622,0.004310,0.005367,0.003966,-33.910690,-42.313499,38.192078,,,,,,,1
1514403879.293577,-1.374881,1.546348,3.100167,-0.012642,-0.020056,0.014826,-0.023930,-0.999701,-0.004749,-0.001659,0.006278,0.005741,-33.751328,-42.260471,38.225830,,,,,,,1
1514403879.303587,-1.370113,1.546228,3.095256,-0.014734,-0.012448,0.007369,-0.024020,-0.999698,-0.004886,-0.007535,0.003955,0.010395,-33.751328,-42.260471,38.225830,,,,,,,1
1514403879.313566,-1.365119,1.546214,3.090092,-0.013651,-0.016593,-0.003344,-0.024010,-0.999698,-0.005009,-0.011726,0.005222,0.011601,-33.615952,-42.393478,38.165710,,,,,,,1
1514403879.323547,-1.359242,1.546273,3.084073,-0.012552,-0.013297,-0.009744,-0.023919,-0.999699,-0.005137,-0.011908,0.005025,0.008372,-33.615952,-42.393478,38.165710,,,,,,,1
1514403879.333555,-1.353584,1.546386,3.078252,-0.011483,-0.017514,-0.015109,-0.023780,-0.999702,-0.005248,-0.006646,0.006263,0.008498,-33.857834,-42.428310,38.191559,,,,,,,1
1514403879.343536,-1.348947,1.546554,3.073425,-0.007202,-0.019614,-0.019390,-0.023595,-0.999706,-0.005322,-0.003169,0.005321,0.006985,-33.857834,-42.428310,38.191559,,,,,,,1
1514403879.353514,-1.344904,1.546742,3.069154,-0.006143,-0.023874,-0.021546,-0.023390,-0.999711,-0.005375,-0.003496,0.003342,0.007298,-33.961777,-42.462288,38.147675,,,,,,,1
1514403879.363524,-1.340339,1.546971,3.064398,-0.006100,-0.015264,-0.024716,-0.023141,-0.999716,-0.005429,-0.004111,0.005103,0.007886,-33.961777,-42.462288,38.147675,,,,,,,1
1514403879.373503,-1.336624,1.547220,3.060559,-0.003948,-0.014158,-0.027916,-0.022875,-0.999722,-0.005457,-0.001615,0.006009,0.006952,-33.748154,-42.333904,38.175476,,,,,,,1
1514403879.383482,-1.332306,1.547469,3.056041,-0.006120,-0.021641,-0.027954,-0.022608,-0.999728,-0.005496,-0.000555,0.005160,0.001499,-33.748154,-42.333904,38.175476,,,,,,,1
1514403879.393492,-1.328665,1.547710,3.052272,-0.002877,-0.010972,-0.025761,-0.022354,-0.999734,-0.005521,0.000274,0.004586,0.004727,-33.508804,-42.322525,38.077911,,,,,,,1
1514403879.403471,-1.325488,1.547914,3.048980,-0.002888,-0.011065,-0.019344,-0.022137,-0.999738,-0.005542,0.003003,0.003568,0.004031,-33.508804,-42.322525,38.077911,,,,,,,1
1514403879.413481,-1.323110,1.548063,3.046519,-0.001825,-0.008999,-0.013985,-0.021982,-0.999742,-0.005559,0.007562,0.004411,0.001042,-33.795380,-42.529701,38.191284,,,,,,,1
1514403879.423460,-1.320623,1.548111,3.043926,-0.005062,-0.009115,-0.004365,-0.021926,-0.999743,-0.005603,0.011550,0.004549,0.004519,-33.795380,-42.529701,38.191284,,,,,,,1
1514403879.433439,-1.318495,1.548091,3.041743,-0.006130,-0.004898,0.001000,-0.021928,-0.999742,-0.005653,0.008531,0.003511,0.009071,-33.573868,-42.369259,38.132690,,,,,,,1
1514403879.443449,-1.315235,1.548042,3.038518,-0.009304,0.004738,0.002108,-0.021958,-0.999741,-0.005737,0.002121,0.002640,0.014663,-33.573868,-42.369259,38.132690,,,,,,,1
1514403879.453429,-1.311971,1.547985,3.035431,-0.009250,0.020776,0.004318,-0.021996,-0.999740,-0.005824,-0.000297,0.004913,0.012858,-33.677338,-42.533424,38.379211,,,,,,,1
1514403879.463408,-1.309500,1.547886,3.033222,-0.007105,0.027126,0.009698,-0.022081,-0.999738,-0.005905,0.001756,0.005688,0.009429,-33.677338,-42.533424,38.379211,,,,,,,1
1514403879.473418,-1.307533,1.547706,3.031478,-0.010361,0.020597,0.018220,-0.022241,-0.999733,-0.005994,0.011163,0.002953,0.004652,-33.533615,-42.339005,38.193939,,,,,,,1
1514403879.483397,-1.307252,1.547448,3.031407,-0.007184,0.018328,0.026772,-0.022489,-0.999727,-0.006068,0.014189,0.001650,0.000056,-33.533615,-42.339005,38.193939,,,,,,,1
1514403879.493376,-1.307153,1.547217,3.031425,-0.003995,0.009804,0.022462,-0.022713,-0.999722,-0.006131,0.011147,0.004086,-0.001376,-33.582748,-42.384666,38.239990,,,,,,,1
1514403879.503386,-1.309556,1.546887,3.033951,-0.002951,0.013883,0.037456,-0.023043,-0.999714,-0.006161,0.007189,0.005024,-0.001454,-33.582748,-42.384666,38.239990,,,,,,,1
1514403879.513366,-1.311203,1.546641,3.035678,-0.002931,0.007672,0.021384,-0.023292,-0.999708,-0.006186,-0.003792,0.003431,0.002387,-33.670181,-42.473186,38.411530,,,,,,,1
1514403879.523345,-1.313521,1.546423,3.038119,-0.001838,0.015118,0.024629,-0.023519,-0.999703,-0.006188,-0.002253,0.006676,0.007348,-33.670181,-42.473186,38.411530,,,,,,,1
1514403879.533355,-1.315318,1.546199,3.040084,-0.000755,0.016228,0.021427,-0.023748,-0.999698,-0.006203,-0.003458,0.004825,0.005165,-33.807556,-42.611237,38.424500,,,,,,,1
1514403879.543334,-1.316653,1.546022,3.041535,-0.001832,0.013066,0.018202,-0.023937,-0.999693,-0.006218,-0.000400,0.005781,0.006172,-33.807556,-42.611237,38.424500,,,,,,,1
1514403879.553313,-1.317289,1.545861,3.042332,-0.002885,0.015256,0.015001,-0.024094,-0.999689,-0.006242,-0.003661,0.006006,0.009264,-33.987930,-42.538433,38.235016,,,,,,,1
1514403879.563323,-1.316436,1.545747,3.041644,-0.003928,0.017452,0.010731,-0.024197,-0.999686,-0.006291,-0.005558,0.007209,0.011631,-33.987930,-42.538433,38.235016,,,,,,,1
1514403879.573302,-1.315178,1.545671,3.040581,-0.004974,0.020727,0.006465,-0.024263,-0.999684,-0.006341,-0.006331,0.003713,0.012810,-34.018265,-42.501842,38.112640,,,,,,,1
1514403879.583282,-1.314040,1.545602,3.039656,-0.003909,0.021786,0.007541,-0.024321,-0.999683,-0.006386,-0.003450,0.003757,0.011848,-34.018265,-42.501842,38.112640,,,,,,,1
1514403879.593291,-1.313537,1.545520,3.039409,-0.002819,0.027138,0.007567,-0.024397,-0.999681,-0.006419,-0.000017,0.004731,0.010111,-34.120209,-42.238903,38.158752,,,,,,,1
1514403879.603271,-1.311278,1.545502,3.037323,-0.008202,0.011222,-0.002140,-0.024402,-0.999680,-0.006479,0.002292,0.003663,0.008997,-34.120209,-42.238903,38.158752,,,,,,,1
1514403879.613250,-1.310923,1.545343,3.037115,-0.005019,0.020547,0.020369,-0.024558,-0.999676,-0.006530,0.005591,0.004391,0.004332,-34.097321,-42.462421,38.252380,,,,,,,1
1514403879.623260,-1.308890,1.545280,3.035232,-0.006050,0.014426,-0.002122,-0.024605,-0.999674,-0.006596,-0.006203,0.004527,0.004642,-34.097321,-42.462421,38.252380,,,,,,,1
1514403879.633239,-1.306812,1.545230,3.033296,-0.007149,0.014286,0.008571,-0.024638,-0.999673,-0.006660,0.000835,0.009958,0.006171,-34.104156,-42.434349,38.061035,,,,,,,1
1514403879.643218,-1.304555,1.545193,3.031104,-0.007155,0.004789,-0.002167,-0.024662,-0.999672,-0.006726,-0.002987,0.002938,0.003354,-34.104156,-42.434349,38.061035,,,,,,,1
1514403879.653228,-1.301326,1.545212,3.027861,-0.009315,-0.001615,-0.003269,-0.024623,-0.999673,-0.006800,-0.001043,0.004784,0.007762,-34.143600,-42.539207,37.891541,,,,,,,1
1514403879.663207,-1.298246,1.545254,3.024771,-0.007163,-0.001567,-0.007543,-0.024560,-0.999674,-0.006865,-0.006553,0.003550,0.007902,-34.143600,-42.539207,37.891541,,,,,,,1
1514403879.673186,-1.294337,1.545322,3.020795,-0.008248,-0.007946,-0.010782,-0.024458,-0.999676,-0.006939,-0.005006,0.005550,0.007733,-34.069290,-42.448387,38.085327,,,,,,,1
1514403879.683196,-1.289652,1.545421,3.016058,-0.009308,-0.005749,-0.013984,-0.024328,-0.999678,-0.007026,-0.004649,0.004912,0.011893,-34.069290,-42.448387,38.085327,,,,,,,1
1514403879.693176,-1.283217,1.545562,3.009552,-0.012510,-0.007807,-0.019346,-0.024143,-0.999682,-0.007141,-0.006909,0.003756,0.017227,-33.849258,-42.386345,37.963318,,,,,,,1
1514403879.703155,-1.276500,1.545753,3.002893,-0.009220,0.009369,-0.023542,-0.023911,-0.999686,-0.007247,-0.009048,0.004142,0.016510,-33.849258,-42.386345,37.963318,,,,,,,1
1514403879.713165,-1.271502,1.545950,2.998111,-0.007027,0.024342,-0.022402,-0.023686,-0.999691,-0.007308,-0.004574,0.003811,0.011184,-33.669769,-42.579941,38.081909,,,,,,,1
1514403879.723144,-1.264041,1.546107,2.990786,-0.013500,0.011486,-0.020331,-0.023484,-0.999695,-0.007439,0.003877,0.004441,0.007332,-33.669769,-42.579941,38.081909,,,,,,,1
1514403879.733123,-1.257493,1.546250,2.984340,-0.012447,0.009296,-0.017130,-0.023303,-0.999699,-0.007550,0.008472,0.004795,0.006741,-33.923050,-42.704041,38.175201,,,,,,,1
1514403879.743133,-1.251283,1.546379,2.978083,-0.010382,-0.011065,-0.017218,-0.023131,-0.999702,-0.007653,0.006133,0.002860,0.006096,-33.923050,-42.704041,38.175201,,,,,,,1
1514403879.753112,-1.244863,1.546456,2.971546,-0.013595,-0.008967,-0.012936,-0.023006,-0.999704,-0.007776,0.000469,0.001291,0.008722,-34.159103,-42.576611,37.992767,,,,,,,1
1514403879.763091,-1.238185,1.546673,2.964730,-0.008219,-0.013056,-0.028988,-0.022749,-0.999709,-0.007858,-0.008379,0.002990,0.006729,-34.159103,-42.576611,37.992767,,,,,,,1
1514403879.773101,-1.232121,1.546876,2.958560,-0.008237,-0.013142,-0.022571,-0.022507,-0.999714,-0.007928,-0.004196,0.007999,0.002206,-33.917816,-42.473793,37.993652,,,,,,,1
1514403879.783080,-1.225186,1.547103,2.951402,-0.009332,-0.024836,-0.029043,-0.022236,-0.999719,-0.008006,-0.002010,0.004678,0.001567,-33.917816,-42.473793,37.993652,,,,,,,1
1514403879.793060,-1.219079,1.547323,2.945030,-0.007197,-0.023816,-0.025826,-0.021979,-0.999725,-0.008066,0.002737,0.005324,0.005487,-33.997025,-42.473587,38.170013,,,,,,,1
1514403879.803069,-1.213621,1.547547,2.939400,-0.005036,-0.016337,-0.024719,-0.021726,-0.999730,-0.008108,0.001005,0.003499,0.006460,-33.997025,-42.473587,38.170013,,,,,,,1
1514403879.813049,-1.208311,1.547769,2.933924,-0.003969,-0.016356,-0.023648,-0.021477,-0.999735,-0.008145,0.001488,0.004953,0.007092,-33.888321,-42.518936,38.160645,,,,,,,1
1514403879.823028,-1.204904,1.547957,2.930435,-0.002875,-0.007853,-0.019329,-0.021277,-0.999739,-0.008152,0.003165,0.006804,0.006367,-33.888321,-42.518936,38.160645,,,,,,,1
1514403879.833038,-1.200189,1.548125,2.925502,-0.006153,-0.026049,-0.019416,-0.021085,-0.999743,-0.008193,0.004117,0.002841,0.008178,-33.696167,-42.476028,38.098938,,,,,,,1
1514403879.843017,-1.195477,1.548282,2.920540,-0.004002,-0.022844,-0.019398,-0.020900,-0.999747,-0.008234,0.002055,0.001562,0.008295,-33.696167,-42.476028,38.098938,,,,,,,1
1514403879.852996,-1.190992,1.548444,2.915805,-0.004015,-0.027114,-0.020487,-0.020711,-0.999750,-0.008268,-0.001414,0.004541,0.007276,-33.948807,-42.542412,38.093719,,,,,,,1
1514403879.863006,-1.186381,1.548639,2.910951,-0.002927,-0.022818,-0.021536,-0.020495,-0.999755,-0.008291,-0.000914,0.006941,0.003927,-33.948807,-42.542412,38.093719,,,,,,,1
1514403879.872985,-1.182310,1.548785,2.906679,-0.003996,-0.018601,-0.016171,-0.020323,-0.999758,-0.008318,0.003493,0.006929,0.004290,-33.815063,-42.708672,38.321594,,,,,,,1
1514403879.882964,-1.178949,1.548895,2.903145,-0.001858,-0.016526,-0.011879,-0.020196,-0.999760,-0.008345,0.004968,0.004948,0.003966,-33.815063,-42.708672,38.321594,,,,,,,1
1514403879.892974,-1.177465,1.548957,2.901526,-0.000802,-0.015546,-0.005455,-0.020127,-0.999762,-0.008352,0.006638,0.004889,0.002981,-33.835220,-42.668400,38.240662,,,,,,,1
1514403879.902952,-1.178216,1.548970,2.902117,0.001314,-0.016710,0.000961,-0.020121,-0.999762,-0.008331,0.007639,0.003317,0.001923,-33.835220,-42.668400,38.240662,,,,,,,1
1514403879.912933,-1.178844,1.548939,2.902566,-0.001908,-0.017811,0.004159,-0.020156,-0.999761,-0.008331,0.006454,0.002660,0.004227,-33.714355,-42.587936,38.234589,,,,,,,1
1514403879.922941,-1.181111,1.548872,2.904697,0.001304,-0.013613,0.009531,-0.020236,-0.999760,-0.008311,0.004459,0.004047,0.003626,-33.714355,-42.587936,38.234589,,,,,,,1
1514403879.932922,-1.184888,1.548760,2.908420,0.003472,-0.002968,0.013861,-0.020371,-0.999757,-0.008276,0.004471,0.005281,0.005316,-33.773499,-42.712002,38.195099,,,,,,,1
1514403879.942901,-1.187597,1.548598,2.911182,-0.001855,0.006639,0.018173,-0.020547,-0.999754,-0.008283,0.004876,0.004011,0.008649,-33.773499,-42.712002,38.195099,,,,,,,1
1514403879.952911,-1.190912,1.548392,2.914593,-0.000785,0.009790,0.022467,-0.020763,-0.999749,-0.008290,0.005398,0.002862,0.009130,-33.832565,-42.721943,38.038483,,,,,,,1
1514403879.962889,-1.194983,1.548198,2.918800,0.001383,0.015146,0.021426,-0.020978,-0.999745,-0.008277,0.002515,0.001637,0.009681,-33.832565,-42.721943,38.038483,,,,,,,1
1514403879.972868,-1.199514,1.548013,2.923468,0.003517,0.013010,0.020350,-0.021186,-0.999740,-0.008249,-0.000847,0.003708,0.006448,-33.837219,-42.661755,38.072540,,,,,,,1
1514403879.982878,-1.202489,1.547870,2.926535,0.001370,0.007737,0.014975,-0.021341,-0.999737,-0.008236,-0.003348,0.005093,0.005627,-33.837219,-42.661755,38.072540,,,,,,,1
1514403879.992857,-1.204896,1.547758,2.929041,0.000321,0.010998,0.011779,-0.021459,-0.999735,-0.008222,-0.006892,0.005152,0.007505,-33.891800,-42.350292,38.016479,,,,,,,1
1514403880.002836,-1.206484,1.547713,2.930784,0.002507,0.018572,0.005399,-0.021513,-0.999734,-0.008204,-0.008226,0.006981,0.006739,-33.891800,-42.350292,38.016479,,,,,,,1
1514403880.012846,-1.208690,1.547678,2.933233,0.002535,0.026070,0.005433,-0.021567,-0.999733,-0.008170,-0.003213,0.007423,0.007850,-33.520004,-42.331501,38.172302,,,,,,,1
1514403880.022825,-1.209147,1.547646,2.933898,-0.001759,0.020761,0.003262,-0.021600,-0.999732,-0.008171,-0.000800,0.004279,0.010246,-33.520004,-42.331501,38.172302,,,,,,,1
1514403880.032805,-1.208276,1.547655,2.933283,-0.001722,0.028302,0.000087,-0.021590,-0.999732,-0.008189,-0.003328,0.003654,0.009318,-33.841919,-42.477036,38.253113,,,,,,,1
1514403880.042814,-1.208101,1.547645,2.933386,-0.000663,0.026141,0.001149,-0.021597,-0.999732,-0.008196,-0.000192,0.005485,0.006319,-33.841919,-42.477036,38.253113,,,,,,,1
1514403880.052794,-1.208542,1.547603,2.934003,-0.000714,0.016429,0.006453,-0.021645,-0.999731,-0.008203,0.006218,0.003378,0.001504,-33.890900,-42.611526,38.281769,,,,,,,1
1514403880.062773,-1.210125,1.547504,2.935706,0.000324,0.011012,0.010709,-0.021752,-0.999729,-0.008204,0.008874,0.004169,0.000636,-33.890900,-42.611526,38.281769,,,,,,,1
1514403880.072783,-1.212656,1.547371,2.938331,0.001371,0.008794,0.016049,-0.021905,-0.999726,-0.008199,0.007288,0.004624,0.000859,-33.880356,-42.652935,38.084442,,,,,,,1
1514403880.082762,-1.215554,1.547208,2.941288,0.000281,0.004483,0.018167,-0.022086,-0.999722,-0.008193,0.004050,0.003704,0.005096,-33.880356,-42.652935,38.084442,,,,,,,1
1514403880.092741,-1.218975,1.547061,2.944806,0.003520,0.010926,0.016063,-0.022247,-0.999718,-0.008167,0.001647,0.002694,0.009540,-34.033081,-42.640919,37.961517,,,,,,,1
1514403880.102751,-1.222330,1.546908,2.948271,0.002447,0.009857,0.016056,-0.022417,-0.999715,-0.008144,-0.000547,0.004659,0.012432,-34.033081,-42.640919,37.961517,,,,,,,1
1514403880.112731,-1.224666,1.546802,2.950719,0.000324,0.010995,0.011779,-0.022535,-0.999712,-0.008127,-0.004107,0.003969,0.010203,-33.853851,-42.394291,38.037567,,,,,,,1
1514403880.122710,-1.225922,1.546715,2.952044,0.000305,0.005708,0.007476,-0.022625,-0.999710,-0.008128,-0.005665,0.004166,0.009486,-33.853851,-42.394291,38.037567,,,,,,,1
1514403880.132720,-1.226685,1.546672,2.952803,0.000286,-0.001747,0.004234,-0.022669,-0.999709,-0.008124,-0.003790,0.006240,0.007010,-33.845657,-42.512665,38.280304,,,,,,,1
1514403880.142699,-1.226797,1.546643,2.952867,-0.000786,-0.006007,0.002074,-0.022695,-0.999708,-0.008130,-0.001490,0.005598,0.005887,-33.845657,-42.512665,38.280304,,,,,,,1
1514403880.152678,-1.225437,1.546669,2.951428,-0.001844,-0.008044,-0.005424,-0.022658,-0.999709,-0.008152,-0.004243,0.006224,0.005558,-33.982986,-42.545773,38.261566,,,,,,,1
1514403880.162688,-1.224600,1.546758,2.950545,0.001393,-0.003696,-0.010747,-0.022564,-0.999711,-0.008139,-0.007755,0.006013,0.005515,-33.982986,-42.545773,38.261566,,,,,,,1
1514403880.172668,-1.223709,1.546874,2.949613,0.001392,-0.004753,-0.011821,-0.022445,-0.999714,-0.008119,-0.005417,0.005451,0.004762,-34.124802,-42.748024,38.143799,,,,,,,1
1514403880.182647,-1.221802,1.546987,2.947611,-0.001844,-0.011164,-0.011855,-0.022323,-0.999717,-0.008123,-0.000276,0.005881,0.006185,-34.124802,-42.748024,38.143799,,,,,,,1
1514403880.192657,-1.219916,1.547112,2.945623,-0.000764,-0.010069,-0.013988,-0.022191,-0.999720,-0.008123,0.000936,0.004618,0.009099,-34.013687,-42.656723,38.165527,,,,,,,1
1514403880.202636,-1.217907,1.547236,2.943557,0.000342,-0.002567,-0.015022,-0.022056,-0.999722,-0.008123,-0.002892,0.002912,0.011618,-34.013687,-42.656723,38.165527,,,,,,,1
1514403880.212615,-1.215435,1.547383,2.941100,-0.000709,0.001736,-0.016074,-0.021898,-0.999726,-0.008127,-0.003920,0.004578,0.012598,-33.913452,-42.502983,37.999603,,,,,,,1
1514403880.222625,-1.213289,1.547536,2.938998,0.000363,0.003863,-0.014993,-0.021739,-0.999730,-0.008121,-0.000310,0.004628,0.008304,-33.913452,-42.502983,37.999603,,,,,,,1
1514403880.232604,-1.211081,1.547662,2.936774,0.001403,-0.002597,-0.012881,-0.021603,-0.999732,-0.008124,0.002956,0.004325,0.006171,-33.996246,-42.399426,38.293762,,,,,,,1
1514403880.242549,-1.210732,1.547768,2.936431,0.003554,0.002706,-0.009645,-0.021506,-0.999735,-0.008096,0.004035,0.004679,0.003885,-33.996246,-42.399426,38.293762,,,,,,,1
1514403880.252559,-1.211279,1.547838,2.936966,0.002452,-0.003759,-0.006467,-0.021440,-0.999736,-0.008058,0.004777,0.006191,0.001787,-34.087387,-42.536839,38.224426,,,,,,,1
1514403880.262538,-1.211886,1.547903,2.937511,0.002446,-0.004846,-0.005402,-0.021387,-0.999738,-0.008024,0.004419,0.004651,0.001966,-34.087387,-42.536839,38.224426,,,,,,,1
1514403880.272518,-1.212439,1.547953,2.938070,0.001404,0.002656,-0.005370,-0.021344,-0.999739,-0.007994,0.002606,0.004241,0.005690,-33.980301,-42.662529,38.118195,,,,,,,1
1514403880.282527,-1.213776,1.547981,2.939341,0.003484,-0.007107,0.003147,-0.021330,-0.999740,-0.007956,0.005202,0.003844,0.008139,-33.980301,-42.662529,38.118195,,,,,,,1
1514403880.292507,-1.214943,1.547922,2.940558,-0.000749,0.003650,0.001048,-0.021396,-0.999738,-0.007953,-0.000729,0.000898,0.008471,-33.848938,-42.633968,38.148102,,,,,,,1
1514403880.302486,-1.214458,1.547971,2.940168,-0.000702,0.014406,-0.002113,-0.021348,-0.999740,-0.007946,-0.002990,0.006820,0.010174,-33.848938,-42.633968,38.148102,,,,,,,1
1514403880.312496,-1.215016,1.547919,2.940899,-0.000718,0.015376,0.005379,-0.021405,-0.999738,-0.007954,0.000439,0.005735,0.007877,-33.746078,-42.585228,38.211884,,,,,,,1
1514403880.322475,-1.213335,1.547943,2.939286,-0.003945,0.002695,-0.006449,-0.021369,-0.999739,-0.007982,0.003486,0.004027,0.007600,-33.746078,-42.585228,38.211884,,,,,,,1
1514403880.332454,-1.213525,1.547880,2.939506,-0.001820,0.011026,0.010705,-0.021431,-0.999737,-0.008000,0.004173,0.005032,0.007451,-33.822235,-42.604523,38.132782,,,,,,,1
1514403880.342464,-1.213275,1.547866,2.939377,0.000341,0.005880,-0.005358,-0.021437,-0.999737,-0.008008,-0.008805,0.003048,0.006208,-33.822235,-42.604523,38.132782,,,,,,,1
1514403880.352443,-1.211103,1.547936,2.937316,-0.002837,0.013405,-0.006400,-0.021355,-0.999739,-0.008031,-0.007957,0.006956,0.006551,-33.851379,-42.460606,38.196564,,,,,,,1
1514403880.362423,-1.209439,1.547997,2.935746,-0.000713,0.006995,-0.008563,-0.021287,-0.999740,-0.008046,-0.003829,0.003585,0.006596,-33.851379,-42.460606,38.196564,,,,,,,1
1514403880.372432,-1.207618,1.548082,2.933915,-0.001818,-0.002641,-0.008608,-0.021191,-0.999742,-0.008053,0.002423,0.003709,0.006726,-33.961624,-42.602512,38.024353,,,,,,,1
1514403880.382412,-1.206197,1.548103,2.932488,-0.001817,0.001572,-0.003242,-0.021160,-0.999743,-0.008076,0.002056,0.003450,0.007847,-33.961624,-42.602512,38.024353,,,,,,,1
1514403880.392391,-1.205505,1.548146,2.931830,0.000325,0.001578,-0.004307,-0.021112,-0.999743,-0.008074,0.001413,0.004703,0.009036,-33.786377,-42.551949,38.049042,,,,,,,1
1514403880.402401,-1.204265,1.548192,2.930596,-0.001815,-0.000547,-0.005390,-0.021056,-0.999745,-0.008083,0.000960,0.006031,0.006603,-33.786377,-42.551949,38.049042,,,,,,,1
1514403880.412380,-1.202355,1.548252,2.928649,-0.001824,-0.003746,-0.006474,-0.020984,-0.999746,-0.008101,-0.000469,0.005239,0.007171,-33.710648,-42.410080,38.197784,,,,,,,1
1514403880.422359,-1.200884,1.548299,2.927077,-0.001861,-0.012309,-0.006513,-0.020926,-0.999747,-0.008114,-0.001169,0.005072,0.008938,-33.710648,-42.410080,38.197784,,,,,,,1
1514403880.432369,-1.198774,1.548377,2.924831,-0.002929,-0.013347,-0.008658,-0.020840,-0.999749,-0.008132,-0.001713,0.004433,0.009123,-33.627838,-42.489845,38.162720,,,,,,,1
1514403880.442348,-1.196147,1.548474,2.922110,-0.001825,-0.006883,-0.011836,-0.020725,-0.999751,-0.008150,-0.003979,0.005381,0.007997,-33.627838,-42.489845,38.162720,,,,,,,1
1514403880.452327,-1.193767,1.548593,2.919681,-0.000739,-0.002603,-0.011815,-0.020601,-0.999754,-0.008157,-0.002318,0.005170,0.005029,-33.835205,-42.581890,38.274658,,,,,,,1
1514403880.462337,-1.191762,1.548695,2.917657,-0.000732,-0.001553,-0.010740,-0.020488,-0.999756,-0.008160,0.001185,0.003937,0.005322,-33.835205,-42.581890,38.274658,,,,,,,1
1514403880.472316,-1.190493,1.548780,2.916332,0.000313,-0.005885,-0.007549,-0.020402,-0.999758,-0.008156,0.002762,0.003633,0.003502,-33.844971,-42.711639,38.152252,,,,,,,1
1514403880.482296,-1.189925,1.548833,2.915705,0.000299,-0.006981,-0.005415,-0.020348,-0.999759,-0.008148,0.005074,0.006671,0.000808,-33.844971,-42.711639,38.152252,,,,,,,1
1514403880.492305,-1.190898,1.548871,2.916532,0.002402,-0.014530,-0.002236,-0.020328,-0.999760,-0.008117,0.006595,0.006474,0.001555,-33.608170,-42.721256,38.111450,,,,,,,1
1514403880.502285,-1.191235,1.548900,2.916726,0.000269,-0.013436,-0.003305,-0.020307,-0.999760,-0.008101,0.002073,0.002019,0.008574,-33.608170,-42.721256,38.111450,,,,,,,1
1514403880.512264,-1.188924,1.548967,2.914365,-0.002879,-0.001554,-0.009675,-0.020228,-0.999762,-0.008123,-0.006627,0.003851,0.012487,-33.734314,-42.684364,38.208099,,,,,,,1
1514403880.522274,-1.186406,1.549071,2.911913,-0.002841,0.007044,-0.011776,-0.020118,-0.999764,-0.008138,-0.009667,0.005501,0.012349,-33.734314,-42.684364,38.208099,,,,,,,1
1514403880.532253,-1.183866,1.549162,2.909458,-0.001772,0.009139,-0.008556,-0.020012,-0.999766,-0.008154,-0.002434,0.003688,0.009467,-33.629837,-42.619274,38.116852,,,,,,,1
1514403880.542232,-1.183134,1.549212,2.908792,0.000339,0.004807,-0.005363,-0.019958,-0.999767,-0.008149,0.004913,0.003933,0.005876,-33.629837,-42.619274,38.116852,,,,,,,1
1514403880.552242,-1.182345,1.549252,2.907998,-0.000751,-0.000545,-0.005388,-0.019913,-0.999768,-0.008149,0.003373,0.003689,0.005418,-33.537201,-42.606285,38.109406,,,,,,,1
1514403880.562221,-1.181363,1.549327,2.907016,0.001405,0.001615,-0.007514,-0.019835,-0.999770,-0.008140,-0.001359,0.003157,0.006050,-33.537201,-42.606285,38.109406,,,,,,,1
1514403880.572200,-1.181079,1.549411,2.906731,0.004606,-0.000540,-0.007518,-0.019757,-0.999771,-0.008115,-0.001712,0.004914,0.003339,-33.851212,-42.874687,38.137543,,,,,,,1
1514403880.582210,-1.181061,1.549466,2.906703,0.002456,-0.002688,-0.006462,-0.019697,-0.999772,-0.008090,0.000669,0.004610,0.003192,-33.851212,-42.874687,38.137543,,,,,,,1
1514403880.592189,-1.181392,1.549507,2.907005,0.001380,-0.002713,-0.004325,-0.019664,-0.999773,-0.008069,0.002467,0.003100,0.005933,-33.723907,-42.367271,38.182465,,,,,,,1
1514403880.602169,-1.181976,1.549551,2.907575,0.001384,-0.000583,-0.003246,-0.019632,-0.999774,-0.008043,-0.000159,0.004779,0.004930,-33.723907,-42.367271,38.182465,,,,,,,1
1514403880.612178,-1.182913,1.549583,2.908531,0.003534,0.003664,-0.001084,-0.019612,-0.999775,-0.008013,0.000172,0.005879,0.007387,-33.675262,-42.486889,38.131042,,,,,,,1
1514403880.622158,-1.183083,1.549602,2.908702,0.001381,-0.001674,-0.002181,-0.019593,-0.999775,-0.008001,0.002091,0.003605,0.008902,-33.675262,-42.486889,38.131042,,,,,,,1
1514403880.632137,-1.183123,1.549616,2.908742,-0.000754,-0.000594,-0.002180,-0.019580,-0.999776,-0.007995,0.000552,0.003301,0.007019,-33.556335,-42.342644,38.127991,,,,,,,1
1514403880.642147,-1.182748,1.549627,2.908380,-0.000755,0.001541,-0.001101,-0.019570,-0.999776,-0.008000,-0.000999,0.005818,0.005818,-33.556335,-42.342644,38.127991,,,,,,,1
1514403880.652126,-1.184791,1.549602,2.910439,0.003509,0.001452,0.004254,-0.019608,-0.999775,-0.007969,0.001450,0.004231,0.005359,-33.746109,-42.546139,38.057281,,,,,,,1
1514403880.662105,-1.186413,1.549558,2.912033,0.000278,-0.004965,0.004220,-0.019661,-0.999774,-0.007953,0.003944,0.003391,0.005695,-33.746109,-42.546139,38.057281,,,,,,,1
1514403880.672115,-1.188734,1.549541,2.914337,0.004589,0.002530,0.003192,-0.019696,-0.999774,-0.007914,0.000211,0.003741,0.006739,-33.830078,-42.539917,38.136047,,,,,,,1
1514403880.682094,-1.189943,1.549548,2.915629,0.001406,0.006886,-0.001073,-0.019701,-0.999774,-0.007888,-0.003416,0.004733,0.008743,-33.830078,-42.539917,38.136047,,,,,,,1
1514403880.692073,-1.189709,1.549565,2.915426,-0.000735,0.005838,-0.002151,-0.019685,-0.999775,-0.007887,-0.003555,0.006931,0.008879,-33.913513,-42.524487,38.181061,,,,,,,1
1514403880.702083,-1.189573,1.549578,2.915342,0.000325,0.003676,-0.001089,-0.019672,-0.999775,-0.007885,-0.000943,0.003880,0.009442,-33.913513,-42.524487,38.181061,,,,,,,1
1514403880.712062,-1.189482,1.549572,2.915267,-0.000763,0.000438,0.001034,-0.019677,-0.999775,-0.007889,0.001534,0.003452,0.005844,-33.905350,-42.614796,37.969299,,,,,,,1
1514403880.722042,-1.189319,1.549543,2.915075,-0.002925,-0.003866,0.003150,-0.019704,-0.999774,-0.007904,0.002202,0.004474,0.004562,-33.905350,-42.614796,37.969299,,,,,,,1
1514403880.732051,-1.189300,1.549499,2.915020,-0.002928,-0.003880,0.004219,-0.019740,-0.999773,-0.007919,0.002513,0.004244,0.006103,-33.842865,-42.691154,38.120239,,,,,,,1
1514403880.742031,-1.188743,1.549447,2.914445,-0.002915,-0.000686,0.005303,-0.019785,-0.999772,-0.007950,0.000971,0.003266,0.007156,-33.842865,-42.691154,38.120239,,,,,,,1
1514403880.752010,-1.188123,1.549385,2.913806,-0.002924,-0.003885,0.004219,-0.019838,-0.999771,-0.007985,0.000353,0.003952,0.007405,-33.608383,-42.704147,38.016937,,,,,,,1
1514403880.762020,-1.187962,1.549297,2.913619,-0.004002,-0.002849,0.007431,-0.019914,-0.999769,-0.008020,0.002230,0.004530,0.006860,-33.608383,-42.704147,38.016937,,,,,,,1
1514403880.771999,-1.188180,1.549223,2.913803,-0.002933,-0.003910,0.006358,-0.019986,-0.999767,-0.008043,0.001934,0.004116,0.005525,-33.742172,-42.606064,38.116943,,,,,,,1
1514403880.781978,-1.187339,1.549158,2.912916,-0.005066,-0.004931,0.003141,-0.020034,-0.999766,-0.008082,-0.000581,0.004069,0.006770,-33.742172,-42.606064,38.116943,,,,,,,1
1514403880.791988,-1.186886,1.549120,2.912432,-0.002915,-0.001726,0.003159,-0.020070,-0.999765,-0.008107,-0.003047,0.005991,0.005208,-33.960083,-42.507332,38.179779,,,,,,,1
1514403880.801967,-1.187275,1.549102,2.912776,0.000290,-0.004925,0.001012,-0.020089,-0.999765,-0.008106,-0.002723,0.006463,0.003116,-33.960083,-42.507332,38.179779,,,,,,,1
1514403880.811946,-1.187789,1.549101,2.913185,-0.000805,-0.012404,-0.000093,-0.020098,-0.999765,-0.008098,0.000567,0.004678,0.003901,-33.908463,-42.575371,38.145752,,,,,,,1
1514403880.821956,-1.187627,1.549108,2.912908,0.000271,-0.010265,-0.000082,-0.020092,-0.999765,-0.008099,-0.000797,0.004541,0.005871,-33.908463,-42.575371,38.145752,,,,,,,1
1514403880.831935,-1.187534,1.549141,2.912727,-0.000779,-0.008061,-0.004352,-0.020065,-0.999766,-0.008090,-0.004288,0.004236,0.008670,-33.682526,-42.533756,38.081970,,,,,,,1
1514403880.841915,-1.186066,1.549200,2.911198,-0.000757,-0.004823,-0.006477,-0.020000,-0.999767,-0.008098,-0.004308,0.004116,0.008159,-33.682526,-42.533756,38.081970,,,,,,,1
1514403880.851924,-1.184902,1.549268,2.909995,0.000320,-0.003741,-0.007540,-0.019929,-0.999768,-0.008096,-0.002166,0.004788,0.006586,-33.755844,-42.707474,38.136505,,,,,,,1
1514403880.861904,-1.184080,1.549319,2.909119,-0.000768,-0.004846,-0.004338,-0.019876,-0.999769,-0.008094,0.001153,0.003752,0.004630,-33.755844,-42.707474,38.136505,,,,,,,1
1514403880.871883,-1.183699,1.549339,2.908696,-0.000769,-0.002747,-0.001120,-0.019851,-0.999770,-0.008093,0.002303,0.003478,0.005148,-33.762131,-42.637215,38.072723,,,,,,,1
1514403880.881893,-1.182729,1.549344,2.907707,-0.002896,-0.001641,-0.003258,-0.019836,-0.999770,-0.008109,0.002838,0.004012,0.007468,-33.762131,-42.637215,38.072723,,,,,,,1
1514403880.891872,-1.181456,1.549337,2.906450,-0.002892,0.001529,-0.000035,-0.019830,-0.999770,-0.008136,0.000162,0.004271,0.008594,-33.808685,-42.394180,38.176941,,,,,,,1
1514403880.901851,-1.181194,1.549353,2.906228,-0.000731,0.005833,-0.002151,-0.019815,-0.999770,-0.008136,-0.003272,0.004683,0.008548,-33.808685,-42.394180,38.176941,,,,,,,1
1514403880.911861,-1.180014,1.549367,2.905094,-0.002875,0.004771,-0.002159,-0.019795,-0.999770,-0.008155,-0.001872,0.004501,0.008216,-33.697266,-42.626976,38.129425,,,,,,,1
1514403880.921840,-1.178142,1.549367,2.903205,-0.006108,-0.001661,-0.001124,-0.019787,-0.999770,-0.008195,0.000744,0.003707,0.007203,-33.697266,-42.626976,38.129425,,,,,,,1
1514403880.931819,-1.177111,1.549370,2.902183,-0.000739,0.003674,-0.001091,-0.019777,-0.999770,-0.008215,0.000978,0.004211,0.006277,-33.481567,-42.468700,38.042572,,,,,,,1
1514403880.941829,-1.176275,1.549368,2.901411,-0.001804,0.006881,-0.000009,-0.019770,-0.999770,-0.008231,-0.000356,0.004791,0.004981,-33.481567,-42.468700,38.042572,,,,,,,1
1514403880.951809,-1.176523,1.549357,2.901716,0.000326,0.005773,0.002129,-0.019785,-0.999770,-0.008232,0.001291,0.005095,0.003425,-33.501251,-42.655464,38.294342,,,,,,,1
1514403880.961788,-1.177507,1.549343,2.902701,0.000296,-0.001723,0.002095,-0.019809,-0.999770,-0.008219,0.001270,0.004973,0.004236,-33.501251,-42.655464,38.294342,,,,,,,1
1514403880.971798,-1.177211,1.549361,2.902387,-0.000757,0.000467,-0.001105,-0.019798,-0.999770,-0.008221,-0.001579,0.003783,0.007184,-33.825699,-42.610199,38.093689,,,,,,,1
1514403880.981777,-1.176746,1.549374,2.901919,-0.000758,-0.000590,-0.002180,-0.019778,-0.999771,-0.008224,-0.003033,0.004028,0.008254,-33.825699,-42.610199,38.093689,,,,,,,1
1514403880.991756,-1.175292,1.549430,2.900427,-0.000759,-0.004803,-0.007547,-0.019715,-0.999772,-0.008231,-0.003768,0.006501,0.007422,-33.691452,-42.629066,38.069122,,,,,,,1
1514403881.001766,-1.173396,1.549521,2.898524,-0.001800,0.000583,-0.009663,-0.019618,-0.999774,-0.008234,-0.005833,0.004748,0.008372,-33.691452,-42.629066,38.069122,,,,,,,1
1514403881.011745,-1.169712,1.549627,2.894846,-0.002861,0.000630,-0.012874,-0.019489,-0.999776,-0.008265,-0.004955,0.004949,0.009333,-33.649246,-42.714828,38.143158,,,,,,,1
1514403881.021724,-1.165967,1.549735,2.891121,-0.004995,0.001708,-0.012873,-0.019361,-0.999778,-0.008296,-0.002474,0.005577,0.009059,-33.649246,-42.714828,38.143158,,,,,,,1
1514403881.031734,-1.161666,1.549836,2.886826,-0.003932,0.000618,-0.011806,-0.019232,-0.999780,-0.008339,-0.000422,0.004114,0.008598,-33.822983,-42.507416,37.967163,,,,,,,1
1514403881.041713,-1.157035,1.549901,2.882189,-0.006091,-0.001538,-0.009681,-0.019135,-0.999782,-0.008402,0.001984,0.003429,0.007609,-33.822983,-42.507416,37.967163,,,,,,,1
1514403881.051693,-1.153269,1.549949,2.878408,-0.006100,-0.001581,-0.006472,-0.019056,-0.999783,-0.008453,0.003141,0.003750,0.005112,-33.813309,-42.697517,38.058411,,,,,,,1
1514403881.061702,-1.150140,1.550015,2.875239,-0.003962,-0.003703,-0.008617,-0.018972,-0.999784,-0.008487,0.002172,0.005186,0.001697,-33.813309,-42.697517,38.058411,,,,,,,1
1514403881.071682,-1.147755,1.550052,2.872802,-0.003976,-0.005874,-0.006488,-0.018916,-0.999785,-0.008516,0.002695,0.005995,0.001986,-33.888748,-42.835976,38.172180,,,,,,,1
1514403881.081661,-1.144524,1.550095,2.869474,-0.005055,-0.010144,-0.007578,-0.018850,-0.999786,-0.008560,0.000478,0.005447,0.005997,-33.888748,-42.835976,38.172180,,,,,,,1
1514403881.091671,-1.142320,1.550151,2.867217,-0.001818,-0.002659,-0.007539,-0.018778,-0.999787,-0.008577,-0.003652,0.005204,0.007372,-33.757797,-42.731644,38.013367,,,,,,,1
1514403881.101650,-1.138240,1.550226,2.863095,-0.005027,-0.004728,-0.011832,-0.018673,-0.999788,-0.008622,-0.003758,0.004656,0.009797,-33.757797,-42.731644,38.013367,,,,,,,1
1514403881.111629,-1.133778,1.550331,2.858601,-0.002872,-0.001508,-0.012884,-0.018540,-0.999791,-0.008661,-0.004348,0.004078,0.010766,-33.746948,-42.715466,38.062073,,,,,,,1
1514403881.121639,-1.128812,1.550437,2.853657,-0.004989,0.002794,-0.013937,-0.018399,-0.999793,-0.008707,-0.004077,0.003546,0.010217,-33.746948,-42.715466,38.062073,,,,,,,1
1514403881.131618,-1.123614,1.550551,2.848490,-0.004989,0.002794,-0.013937,-0.018253,-0.999795,-0.008754,-0.002178,0.003930,0.008632,-33.783722,-42.592140,38.281769,,,,,,,1
1514403881.141597,-1.118883,1.550653,2.843768,-0.005002,0.000641,-0.012878,-0.018124,-0.999797,-0.008798,0.001049,0.003246,0.008126,-33.783722,-42.592140,38.281769,,,,,,,1
1514403881.151607,-1.113862,1.550730,2.838728,-0.007161,-0.003650,-0.011831,-0.018005,-0.999799,-0.008852,0.000777,0.004666,0.007173,-33.426514,-42.787506,38.220490,,,,,,,1
1514403881.161586,-1.108839,1.550820,2.833682,-0.005007,-0.000413,-0.013952,-0.017882,-0.999801,-0.008903,-0.000612,0.005507,0.004341,-33.426514,-42.787506,38.220490,,,,,,,1
1514403881.171566,-1.105051,1.550908,2.829882,-0.003950,-0.001531,-0.010747,-0.017772,-0.999802,-0.008933,0.001277,0.004899,0.001929,-33.558655,-42.627701,38.232513,,,,,,,1
1514403881.181575,-1.100850,1.550975,2.825607,-0.005047,-0.007967,-0.009708,-0.017673,-0.999804,-0.008976,0.001727,0.005083,0.002277,-33.558655,-42.627701,38.232513,,,,,,,1
1514403881.191555,-1.097962,1.551031,2.822675,-0.002898,-0.004777,-0.008620,-0.017590,-0.999805,-0.008998,0.002225,0.004459,0.004451,-33.784332,-42.822399,38.086761,,,,,,,1
1514403881.201534,-1.096033,1.551070,2.820691,-0.001834,-0.004845,-0.004340,-0.017539,-0.999805,-0.009015,0.001503,0.003544,0.005780,-33.784332,-42.822399,38.086761,,,,,,,1
1514403881.211544,-1.093373,1.551112,2.818009,-0.003949,-0.000509,-0.007533,-0.017471,-0.999806,-0.009038,-0.000015,0.003636,0.006673,-33.779419,-42.730881,38.121643,,,,,,,1
1514403881.221523,-1.089658,1.551181,2.814302,-0.003935,0.002737,-0.009658,-0.017380,-0.999808,-0.009073,-0.002381,0.006720,0.007837,-33.779419,-42.730881,38.121643,,,,,,,1
1514403881.231502,-1.086231,1.551258,2.810916,-0.001788,0.004871,-0.009644,-0.017283,-0.999809,-0.009098,-0.002645,0.004570,0.008900,-33.541580,-42.737961,38.154572,,,,,,,1
1514403881.241500,-1.082265,1.551328,2.806931,-0.005033,-0.003698,-0.008619,-0.017187,-0.999811,-0.009135,0.000250,0.002343,0.006480,-33.541580,-42.737961,38.154572,,,,,,,1
1514403881.251479,-1.077468,1.551385,2.802109,-0.005020,-0.001527,-0.010748,-0.017090,-0.999812,-0.009189,-0.000396,0.004008,0.006992,-33.652603,-42.646862,38.112366,,,,,,,1
1514403881.261458,-1.073450,1.551471,2.798097,-0.002864,0.002749,-0.010725,-0.016977,-0.999813,-0.009216,-0.001883,0.004330,0.006302,-33.652603,-42.646862,38.112366,,,,,,,1
1514403881.271468,-1.069181,1.551547,2.793864,-0.005008,0.001687,-0.010734,-0.016874,-0.999815,-0.009254,-0.000658,0.005903,0.004478,-33.416245,-42.707615,38.138550,,,,,,,1
1514403881.281447,-1.064533,1.551587,2.789211,-0.006096,-0.001568,-0.007542,-0.016793,-0.999816,-0.009311,0.002862,0.007109,0.003360,-33.416245,-42.707615,38.138550,,,,,,,1
1514403881.291427,-1.061061,1.551614,2.785759,-0.005011,0.004811,-0.004302,-0.016740,-0.999816,-0.009358,0.003022,0.003829,0.005360,-33.665207,-42.721386,38.179382,,,,,,,1
1514403881.301436,-1.057609,1.551634,2.782356,-0.004998,0.005908,-0.006436,-0.016687,-0.999816,-0.009404,0.000177,0.002639,0.008473,-33.665207,-42.721386,38.179382,,,,,,,1
1514403881.311416,-1.052666,1.551661,2.777525,-0.008179,0.013418,-0.006408,-0.016624,-0.999817,-0.009477,-0.001061,0.006027,0.007738,-33.708527,-42.737831,38.167297,,,,,,,1
1514403881.321395,-1.045946,1.551656,2.770924,-0.011395,0.012362,-0.006419,-0.016570,-0.999817,-0.009594,-0.000795,0.006836,0.006054,-33.708527,-42.737831,38.167297,,,,,,,1
1514403881.331405,-1.040302,1.551641,2.765439,-0.010315,0.016614,-0.004259,-0.016521,-0.999817,-0.009691,0.000514,0.005523,0.005830,-33.727417,-42.769676,38.127716,,,,,,,1
1514403881.341384,-1.034178,1.551612,2.759446,-0.012479,0.011236,-0.002147,-0.016489,-0.999816,-0.009808,0.000330,0.004668,0.008114,-33.727417,-42.769676,38.127716,,,,,,,1
1514403881.351363,-1.029482,1.551569,2.754833,-0.008221,0.007963,0.001054,-0.016483,-0.999815,-0.009910,0.001453,-0.000215,0.010825,-33.697845,-42.664978,38.194305,,,,,,,1
1514403881.361373,-1.025515,1.551482,2.750877,-0.010399,0.000450,0.003156,-0.016513,-0.999813,-0.010017,0.004626,0.002987,0.008873,-33.697845,-42.664978,38.194305,,,,,,,1
1514403881.371352,-1.020351,1.551418,2.745666,-0.011478,-0.005900,-0.002223,-0.016511,-0.999812,-0.010133,0.000032,0.007442,0.005693,-33.581451,-42.762974,37.984009,,,,,,,1
1514403881.381331,-1.014383,1.551429,2.739676,-0.010375,-0.001533,-0.008619,-0.016441,-0.999812,-0.010226,-0.006661,0.004634,0.005557,-33.581451,-42.762974,37.984009,,,,,,,1
1514403881.391341,-1.005823,1.551504,2.731049,-0.010369,-0.006759,-0.018268,-0.016286,-0.999814,-0.010324,-0.012141,0.006787,0.007577,-33.548264,-42.778992,38.127838,,,,,,,1
1514403881.401320,-0.996548,1.551654,2.721717,-0.008206,-0.005631,-0.023607,-0.016068,-0.999817,-0.010396,-0.010406,0.006210,0.009511,-33.548264,-42.778992,38.127838,,,,,,,1
1514403881.411300,-0.983400,1.551885,2.708376,-0.008241,-0.023681,-0.035454,-0.015743,-0.999821,-0.010482,-0.009876,0.003956,0.009841,-33.538376,-42.726517,38.094147,,,,,,,1
1514403881.421309,-0.966878,1.552183,2.691541,-0.009316,-0.032118,-0.045119,-0.015322,-0.999827,-0.010571,-0.011198,0.004450,0.010372,-33.538376,-42.726517,38.094147,,,,,,,1
1514403881.431289,-0.943783,1.552560,2.668122,-0.014623,-0.031895,-0.060102,-0.014768,-0.999834,-0.010700,-0.015872,0.004396,0.012760,-33.591003,-42.783627,38.136749,,,,,,,1
1514403881.441268,-0.914281,1.553050,2.638329,-0.015652,-0.029556,-0.073998,-0.014063,-0.999843,-0.010836,-0.020864,0.006404,0.012515,-33.591003,-42.783627,38.136749,,,,,,,1
1514403881.451278,-0.878980,1.553599,2.602725,-0.014558,-0.031545,-0.085771,-0.013241,-0.999852,-0.010969,-0.019107,0.006093,0.011564,-33.480606,-42.787609,38.017456,,,,,,,1
1514403881.461257,-0.838487,1.554195,2.561868,-0.013495,-0.037871,-0.093285,-0.012347,-0.999862,-0.011101,-0.014020,0.005172,0.011025,-33.480606,-42.787609,38.017456,,,,,,,1
1514403881.471267,-0.793272,1.554773,2.516260,-0.014560,-0.038895,-0.096500,-0.011405,-0.999872,-0.011227,-0.010445,0.003885,0.011456,-33.532486,-43.033516,38.113098,,,,,,,1
1514403881.481246,-0.741355,1.555337,2.463953,-0.016673,-0.037752,-0.101846,-0.010418,-0.999880,-0.011379,-0.008686,0.004306,0.009609,-33.532486,-43.033516,38.113098,,,,,,,1
1514403881.491225,-0.684539,1.555895,2.406767,-0.013443,-0.034509,-0.105035,-0.009394,-0.999889,-0.011509,-0.007010,0.007259,0.008244,-33.238495,-43.052086,37.967316,,,,,,,1
1514403881.501235,-0.623199,1.556395,2.345138,-0.013417,-0.024875,-0.103922,-0.008366,-0.999896,-0.011640,-0.006297,0.004596,0.006177,-33.238495,-43.052086,37.967316,,,,,,,1
1514403881.511214,-0.558601,1.556834,2.280221,-0.014510,-0.030240,-0.102879,-0.007356,-0.999903,-0.011770,-0.000792,0.003977,0.004934,-33.183411,-42.954422,38.163055,,,,,,,1
1514403881.521193,-0.493695,1.557227,2.214995,-0.009161,-0.028199,-0.097512,-0.006387,-0.999908,-0.011868,0.003396,0.005584,0.002697,-33.183411,-42.954422,38.163055,,,,,,,1
1514403881.531203,-0.426566,1.557572,2.147568,-0.008087,-0.027132,-0.097505,-0.005429,-0.999913,-0.011946,0.003354,0.005497,0.001310,-33.179657,-43.152824,37.947266,,,,,,,1
1514403881.541182,-0.357978,1.557873,2.078691,-0.008103,-0.029301,-0.095376,-0.004498,-0.999916,-0.012024,0.001782,0.006478,0.000976,-33.179657,-43.152824,37.947266,,,,,,,1
1514403881.551162,-0.286087,1.558142,2.006530,-0.003805,-0.025019,-0.096419,-0.003549,-0.999920,-0.012064,-0.002478,0.004208,0.001292,-32.972778,-42.915207,37.946930,,,,,,,1
1514403881.561172,-0.212203,1.558382,1.932350,-0.002768,-0.032533,-0.095381,-0.002601,-0.999923,-0.012074,-0.001457,0.005492,0.003133,-32.972778,-42.915207,37.946930,,,,,,,1
1514403881.571151,-0.139682,1.558503,1.859466,-0.006001,-0.035791,-0.091123,-0.001704,-0.999924,-0.012123,0.000194,0.004533,0.003944,-32.794006,-43.179314,38.135742,,,,,,,1
1514403881.581130,-0.066286,1.558575,1.785758,-0.003839,-0.030447,-0.091095,-0.000807,-0.999925,-0.012152,0.001158,0.003862,0.005697,-32.794006,-43.179314,38.135742,,,,,,,1
1514403881.591140,0.004977,1.558583,1.714309,-0.002721,-0.014442,-0.086743,0.000061,-0.999925,-0.012176,-0.001068,0.004854,0.005569,-32.841110,-43.377029,38.088562,,,,,,,1
1514403881.601119,0.074617,1.558541,1.644567,-0.003781,-0.010164,-0.085656,0.000912,-0.999925,-0.012202,-0.000729,0.004304,0.007029,-32.841110,-43.377029,38.088562,,,,,,,1
1514403881.611098,0.138529,1.558425,1.580606,-0.004841,-0.002748,-0.079208,0.001706,-0.999923,-0.012233,0.001819,0.004150,0.006114,-32.668396,-43.338943,38.169098,,,,,,,1
1514403881.621108,0.195291,1.558255,1.523847,-0.006979,0.001438,-0.071705,0.002431,-0.999921,-0.012292,0.005259,0.004133,0.006280,-32.668396,-43.338943,38.169098,,,,,,,1
1514403881.631087,0.245710,1.558048,1.473468,-0.008051,0.005641,-0.065271,0.003100,-0.999919,-0.012360,0.007002,0.003840,0.004243,-32.516785,-43.434685,38.097809,,,,,,,1
1514403881.641067,0.288235,1.557842,1.431020,-0.004853,0.010860,-0.055616,0.003678,-0.999916,-0.012407,0.008544,0.003242,0.004121,-32.516785,-43.434685,38.097809,,,,,,,1
1514403881.651076,0.324681,1.557692,1.394760,-0.001640,0.017173,-0.048095,0.004180,-0.999914,-0.012420,0.008988,0.003439,0.003493,-32.465927,-43.258415,38.185577,,,,,,,1
1514403881.661056,0.356793,1.557549,1.362799,0.000478,0.012816,-0.043832,0.004628,-0.999912,-0.012416,0.008922,0.003864,0.002773,-32.465927,-43.258415,38.185577,,,,,,,1
1514403881.671035,0.384940,1.557394,1.334726,-0.000621,0.007421,-0.040649,0.005031,-0.999910,-0.012419,0.005589,0.004335,0.003279,-32.515915,-43.443356,38.030151,,,,,,,1
1514403881.681045,0.411636,1.557246,1.308096,0.000437,0.007378,-0.037439,0.005420,-0.999908,-0.012415,0.002362,0.005035,0.003596,-32.515915,-43.443356,38.030151,,,,,,,1
1514403881.691024,0.436886,1.557093,1.282903,0.000425,0.004165,-0.037453,0.005799,-0.999906,-0.012418,0.000412,0.004621,0.004407,-32.312912,-43.343052,38.110260,,,,,,,1
1514403881.701003,0.461502,1.556943,1.258345,0.000426,0.005239,-0.037448,0.006169,-0.999904,-0.012404,0.000041,0.003719,0.004409,-32.312912,-43.343052,38.110260,,,,,,,1
1514403881.711013,0.485403,1.556783,1.234533,0.001509,0.009505,-0.036358,0.006536,-0.999902,-0.012391,-0.000326,0.003854,0.007127,-32.265945,-43.319553,38.116821,,,,,,,1
1514403881.720992,0.509839,1.556645,1.210195,0.004728,0.011614,-0.035273,0.006904,-0.999900,-0.012347,-0.001410,0.002875,0.005755,-32.265945,-43.319553,38.116821,,,,,,,1
1514403881.730971,0.531909,1.556534,1.188194,0.004696,0.005144,-0.032093,0.007234,-0.999898,-0.012292,0.001601,0.004796,0.005944,-32.453506,-43.019730,38.227478,,,,,,,1
1514403881.740981,0.552146,1.556410,1.167971,0.005746,0.001899,-0.029967,0.007543,-0.999897,-0.012243,0.001414,0.003406,0.005072,-32.453506,-43.019730,38.227478,,,,,,,1
1514403881.750960,0.571347,1.556351,1.148828,0.010041,0.008266,-0.026722,0.007812,-0.999896,-0.012152,0.001938,0.002474,0.005117,-32.392120,-43.232269,38.127014,,,,,,,1
,,,,,,,,,,,,,,,,33.823734,-116.547585,139.788834,-1.000000,-1.000000,1514403881.730875,1
1514403881.760940,0.591868,1.556281,1.128329,0.008938,-0.001338,-0.028906,0.008101,-0.999895,-0.012050,0.000826,0.004549,0.004969,-32.392120,-43.232269,38.127014,,,,,,,1
1514403881.770949,0.611685,1.556202,1.108535,0.008950,0.001875,-0.028892,0.008384,-0.999893,-0.011952,-0.003409,0.004456,0.005727,-32.470245,-43.372849,38.363098,,,,,,,1
1514403881.780929,0.632886,1.556076,1.087411,0.007923,0.011565,-0.032059,0.008703,-0.999892,-0.011865,-0.005011,0.004668,0.006143,-32.470245,-43.372849,38.363098,,,,,,,1
1514403881.790908,0.652160,1.555982,1.068244,0.008968,0.007233,-0.028868,0.008996,-0.999890,-0.011781,-0.001199,0.004575,0.004991,-32.362839,-43.306606,38.152832,,,,,,,1
1514403881.800918,0.669099,1.555848,1.051358,0.005758,0.007211,-0.026734,0.009268,-0.999888,-0.011720,0.003015,0.003795,0.003160,-32.362839,-43.306606,38.152832,,,,,,,1
1514403881.810897,0.683566,1.555766,1.036976,0.006817,0.008206,-0.021380,0.009493,-0.999887,-0.011654,0.004652,0.004022,0.005001,-32.201294,-43.500240,38.019135,,,,,,,1
1514403881.820876,0.694740,1.555721,1.025864,0.008923,0.005960,-0.013899,0.009648,-0.999886,-0.011578,0.004802,0.004159,0.004528,-32.201294,-43.500240,38.019135,,,,,,,1
1514403881.830886,0.704653,1.555718,1.015975,0.008895,0.000561,-0.010715,0.009766,-0.999886,-0.011486,0.006714,0.003609,0.000347,-32.272751,-43.377850,37.955963,,,,,,,1
1514403881.840865,0.712502,1.555763,1.008143,0.011024,0.000494,-0.006433,0.009830,-0.999887,-0.011378,0.005872,0.004419,0.001811,-32.272751,-43.377850,37.955963,,,,,,,1
1514403881.850844,0.719368,1.555828,1.001252,0.012074,-0.001710,-0.002162,0.009859,-0.999888,-0.011255,0.004728,0.003886,0.002649,-32.278366,-43.130405,38.052338,,,,,,,1
1514403881.860854,0.725343,1.555949,0.995253,0.015273,-0.002857,0.002117,0.009850,-0.999890,-0.011110,0.002266,0.003262,0.002382,-32.278366,-43.130405,38.052338,,,,,,,1
1514403881.870833,0.729777,1.556110,0.990823,0.015277,0.001370,0.006414,0.009790,-0.999892,-0.010945,0.002783,0.004043,0.003041,-32.408432,-43.172478,38.143982,,,,,,,1
1514403881.880813,0.734678,1.556241,0.985851,0.014180,-0.008223,0.003161,0.009754,-0.999894,-0.010797,0.001004,0.005601,0.003580,-32.388474,-43.252483,38.120209,,,,,,,1
1514403881.890822,0.739904,1.556366,0.980626,0.014218,0.002508,0.002139,0.009730,-0.999896,-0.010658,-0.001002,0.004809,0.005653,-32.388474,-43.252483,38.120209,,,,,,,1
1514403881.900802,0.745411,1.556512,0.975165,0.017437,0.006734,0.005372,0.009685,-0.999898,-0.010492,-0.001628,0.003163,0.007578,-32.388474,-43.252483,38.120209,,,,,,,1
1514403881.910781,0.749073,1.556672,0.971548,0.014201,0.001363,0.007482,0.009614,-0.999900,-0.010340,0.000197,0.002876,0.007715,-32.393875,-43.381920,38.293457,,,,,,,1
1514403881.920791,0.750561,1.556834,0.970006,0.013100,-0.004029,0.010664,0.009516,-0.999903,-0.010203,0.002004,0.001856,0.007747,-32.479065,-43.422951,38.161652,,,,,,,1
1514403881.930770,0.750224,1.556984,0.970314,0.010964,-0.002949,0.010665,0.009412,-0.999905,-0.010099,0.000766,0.004955,0.011029,-32.479065,-43.422951,38.161652,,,,,,,1
1514403881.940749,0.750460,1.557110,0.970080,0.009922,0.002455,0.007479,0.009329,-0.999906,-0.010004,-0.002279,0.005018,0.010462,-32.517471,-43.288128,37.945435,,,,,,,1
1514403881.950759,0.748832,1.557250,0.971805,0.008873,0.010971,0.011793,0.009219,-0.999908,-0.009919,-0.001406,0.003448,0.005997,-32.517471,-43.288128,37.945435,,,,,,,1
1514403881.960738,0.746415,1.557437,0.974306,0.013125,0.007669,0.017134,0.009066,-0.999911,-0.009801,0.003233,0.004260,0.005315,-32.656906,-43.316391,38.295532,,,,,,,1
1514403881.970717,0.742382,1.557649,0.978393,0.010962,0.002308,0.018176,0.008884,-0.999914,-0.009683,0.005032,0.003347,0.004633,-32.656906,-43.316391,38.295532,,,,,,,1
1514403881.980727,0.737019,1.557869,0.983777,0.012026,0.001200,0.020312,0.008686,-0.999916,-0.009570,0.002560,0.002877,0.004733,-32.431747,-43.225845,38.132812,,,,,,,1
1514403881.990706,0.733079,1.558093,0.987778,0.013121,0.006580,0.018199,0.008500,-0.999919,-0.009440,-0.000657,0.004680,0.006449,-32.431747,-43.225845,38.132812,,,,,,,1
1514403882.000686,0.730602,1.558313,0.990293,0.012035,0.001260,0.016034,0.008337,-0.999922,-0.009305,-0.002798,0.004896,0.007168,-32.536392,-43.364414,38.011292,,,,,,,1
1514403882.010695,0.727669,1.558465,0.993204,0.008833,0.000259,0.011745,0.008205,-0.999924,-0.009211,-0.004726,0.002762,0.009455,-32.536392,-43.364414,38.011292,,,,,,,1
1514403882.020675,0.727304,1.558566,0.993567,0.006715,0.001407,0.006399,0.008129,-0.999925,-0.009133,-0.006543,0.004182,0.011254,-32.314102,-43.390530,38.215576,,,,,,,1
1514403882.030654,0.726244,1.558656,0.994593,0.005612,-0.006115,0.008503,0.008060,-0.999926,-0.009075,-0.004550,0.005069,0.008937,-32.314102,-43.390530,38.215576,,,,,,,1
1514403882.040664,0.722731,1.558735,0.997990,0.004513,-0.013625,0.009537,0.007971,-0.999927,-0.009039,-0.000037,0.002567,0.009100,-32.365143,-43.025257,38.289001,,,,,,,1
1514403882.050643,0.719619,1.558793,1.000962,0.001309,-0.013583,0.007392,0.007900,-0.999928,-0.009014,0.000142,0.004094,0.010830,-32.365143,-43.025257,38.289001,,,,,,,1
1514403882.060622,0.715670,1.558820,1.004805,-0.000809,-0.008186,0.005273,0.007843,-0.999928,-0.009020,-0.003860,0.005498,0.010790,-32.439133,-42.972366,38.072815,,,,,,,1
1514403882.070632,0.712757,1.558835,1.007645,-0.002945,-0.008163,0.004200,0.007811,-0.999928,-0.009036,-0.004118,0.006337,0.008655,-32.439133,-42.972366,38.072815,,,,,,,1
1514403882.080611,0.710779,1.558833,1.009503,-0.000809,-0.012417,0.000976,0.007793,-0.999928,-0.009052,-0.002269,0.005116,0.006626,-32.474304,-43.190792,38.336975,,,,,,,1
1514403882.090590,0.706720,1.558860,1.013487,0.000283,-0.001796,0.007443,0.007732,-0.999929,-0.009056,-0.000728,0.004491,0.004951,-32.474304,-43.190792,38.336975,,,,,,,1
1514403882.100600,0.701514,1.558882,1.018649,-0.004015,-0.008159,0.004198,0.007675,-0.999929,-0.009085,0.002304,0.004476,0.009176,-32.615295,-43.400848,38.341675,,,,,,,1
1514403882.110579,0.698634,1.558883,1.021451,-0.001864,-0.006011,0.003142,0.007652,-0.999929,-0.009110,-0.002326,0.004171,0.007599,-32.615295,-43.400848,38.341675,,,,,,,1
1514403882.120559,0.698263,1.558870,1.021825,-0.001827,0.000472,-0.001107,0.007652,-0.999929,-0.009117,-0.007729,0.003438,0.007729,-32.604507,-43.149200,38.183350,,,,,,,1
1514403882.130568,0.699187,1.558813,1.020845,-0.005056,-0.006970,-0.004355,0.007696,-0.999928,-0.009152,-0.004217,0.005391,0.009793,-32.604507,-43.149200,38.183350,,,,,,,1
1514403882.140548,0.699214,1.558731,1.020766,-0.007181,-0.004791,-0.006488,0.007747,-0.999927,-0.009212,-0.001949,0.005237,0.007503,-32.296646,-43.388210,38.190948,,,,,,,1
1514403882.150527,0.699263,1.558639,1.020653,-0.008263,-0.008000,-0.006505,0.007809,-0.999926,-0.009285,-0.003201,0.005969,0.006783,-32.296646,-43.388210,38.190948,,,,,,,1
1514403882.160537,0.698837,1.558516,1.020990,-0.010402,-0.007975,-0.007578,0.007883,-0.999925,-0.009381,-0.002054,0.005128,0.008878,-32.325790,-43.246658,38.124115,,,,,,,1
1514403882.170516,0.698963,1.558367,1.020825,-0.011446,-0.002586,-0.009695,0.007979,-0.999923,-0.009493,-0.003569,0.004546,0.010942,-32.325790,-43.246658,38.124115,,,,,,,1
1514403882.180495,0.697103,1.558195,1.022660,-0.014659,-0.002587,-0.008631,0.008071,-0.999921,-0.009639,-0.002227,0.004483,0.008800,-32.419891,-43.319813,38.171753,,,,,,,1
1514403882.190505,0.693463,1.558043,1.026271,-0.014662,-0.002601,-0.007561,0.008135,-0.999919,-0.009787,-0.000749,0.003199,0.008520,-32.419891,-43.319813,38.171753,,,,,,,1
1514403882.200484,0.689415,1.557903,1.030295,-0.015735,-0.004762,-0.006503,0.008189,-0.999917,-0.009934,0.000081,0.003487,0.006333,-32.435577,-43.118988,38.169525,,,,,,,1
1514403882.210463,0.685594,1.557756,1.034050,-0.014673,-0.006908,-0.006511,0.008245,-0.999915,-0.010080,-0.000646,0.003913,0.005365,-32.435577,-43.118988,38.169525,,,,,,,1
1514403882.220473,0.682216,1.557593,1.037332,-0.016822,-0.009023,-0.007594,0.008314,-0.999913,-0.010234,-0.000745,0.004048,0.004970,-32.306122,-43.424187,38.166443,,,,,,,1
1514403882.230453,0.679115,1.557431,1.040336,-0.015749,-0.007956,-0.007587,0.008381,-0.999911,-0.010383,-0.001118,0.003390,0.005836,-32.306122,-43.424187,38.166443,,,,,,,1
1514403882.240432,0.676470,1.557257,1.042938,-0.017879,-0.006847,-0.009725,0.008471,-0.999908,-0.010551,-0.003328,0.005066,0.006248,-32.295258,-43.234573,38.313721,,,,,,,1
1514403882.250438,0.674144,1.557043,1.045206,-0.018943,-0.006814,-0.011866,0.008581,-0.999905,-0.010740,-0.003134,0.005078,0.005918,-32.295258,-43.234573,38.313721,,,,,,,1
1514403882.260417,0.673949,1.556859,1.045261,-0.012549,-0.012242,-0.008670,0.008691,-0.999903,-0.010882,-0.000497,0.003870,0.003725,-32.486771,-43.265244,38.095642,,,,,,,1
1514403882.270396,0.670887,1.556712,1.048244,-0.013617,-0.010124,-0.006523,0.008749,-0.999901,-0.011024,0.000620,0.002968,0.002143,-32.486771,-43.265244,38.095642,,,,,,,1
1514403882.280406,0.670724,1.556572,1.048266,-0.012558,-0.014384,-0.008680,0.008840,-0.999899,-0.011141,0.001231,0.006018,0.002947,-32.233398,-43.290188,38.223083,,,,,,,1
1514403882.290385,0.669434,1.556464,1.049510,-0.008242,-0.001605,-0.004337,0.008887,-0.999897,-0.011231,-0.000876,0.005329,0.009339,-32.233398,-43.290188,38.223083,,,,,,,1
1514403882.300364,0.670137,1.556359,1.048861,-0.009279,0.004886,-0.008588,0.008962,-0.999896,-0.011309,-0.001546,0.003176,0.010271,-32.221283,-43.360840,38.071838,,,,,,,1
1514403882.310374,0.669726,1.556225,1.049293,-0.011429,0.002738,-0.007532,0.009042,-0.999894,-0.011420,-0.002237,0.006333,0.009695,-32.221283,-43.360840,38.071838,,,,,,,1
1514403882.320353,0.670672,1.556111,1.048415,-0.007128,0.009150,-0.007496,0.009121,-0.999892,-0.011497,-0.004986,0.004424,0.006995,-32.357986,-43.306076,38.114014,,,,,,,1
1514403882.330333,0.670105,1.556034,1.049043,-0.007165,0.001609,-0.004321,0.009168,-0.999891,-0.011569,0.000628,0.005415,0.002872,-32.357986,-43.306076,38.114014,,,,,,,1
1514403882.340342,0.666323,1.555988,1.052817,-0.007202,-0.002775,0.003147,0.009151,-0.999890,-0.011639,0.007420,0.004376,0.000759,-32.422119,-43.432072,38.238953,,,,,,,1
1514403882.350322,0.660655,1.555950,1.058411,-0.008299,-0.009212,0.004186,0.009109,-0.999890,-0.011721,0.007279,0.002804,0.002489,-32.422119,-43.432072,38.238953,,,,,,,1
1514403882.360301,0.657163,1.555931,1.061837,-0.003994,-0.003862,0.003148,0.009077,-0.999889,-0.011765,-0.000471,0.005016,0.002564,-32.335739,-43.334465,38.157806,,,,,,,1
1514403882.370311,0.653364,1.555913,1.065619,-0.006126,-0.001711,0.003154,0.009045,-0.999889,-0.011815,-0.004437,0.004772,0.005758,-32.335739,-43.334465,38.157806,,,,,,,1
1514403882.380290,0.649603,1.555880,1.069296,-0.006148,-0.008140,0.003125,0.009017,-0.999889,-0.011872,-0.002181,0.004695,0.006516,-32.229446,-43.341393,38.105133,,,,,,,1
1514403882.390269,0.646963,1.555860,1.071852,-0.002935,-0.007082,0.003135,0.008995,-0.999888,-0.011907,-0.000846,0.003718,0.007054,-32.229446,-43.341393,38.105133,,,,,,,1
1514403882.400279,0.643968,1.555848,1.074830,-0.003978,0.000440,0.002097,0.008966,-0.999888,-0.011943,-0.002954,0.004130,0.008525,-32.328323,-43.449501,38.031219,,,,,,,1
1514403882.410258,0.642783,1.555843,1.076017,-0.002912,-0.000636,0.002094,0.008956,-0.999888,-0.011959,-0.002532,0.005213,0.007793,-32.328323,-43.449501,38.031219,,,,,,,1
1514403882.420237,0.640570,1.555828,1.078259,-0.002902,0.002562,0.003178,0.008939,-0.999888,-0.011992,-0.000639,0.003443,0.006926,-32.335938,-43.397408,38.140472,,,,,,,1
1514403882.430247,0.637931,1.555826,1.080907,-0.001842,0.001458,0.005315,0.008907,-0.999888,-0.012014,0.000127,0.003901,0.006155,-32.335938,-43.397408,38.140472,,,,,,,1
1514403882.440226,0.635599,1.555864,1.083320,-0.000748,0.007880,0.005345,0.008859,-0.999889,-0.012009,0.000174,0.002986,0.007569,-32.229477,-43.277596,38.119598,,,,,,,1
1514403882.450206,0.634227,1.555850,1.084732,-0.002903,0.000448,0.001030,0.008852,-0.999888,-0.012034,-0.001833,0.004542,0.005961,-32.229477,-43.277596,38.119598,,,,,,,1
1514403882.460215,0.632391,1.555811,1.086614,-0.003949,0.005821,-0.000018,0.008852,-0.999888,-0.012080,-0.004122,0.003092,0.005336,-32.044571,-43.267303,38.132935,,,,,,,1
1514403882.470195,0.631855,1.555751,1.087199,-0.006091,0.003716,-0.002170,0.008879,-0.999887,-0.012131,-0.004104,0.003305,0.008026,-32.044571,-43.267303,38.132935,,,,,,,1
1514403882.480174,0.630060,1.555688,1.089020,-0.008237,0.001581,-0.002183,0.008895,-0.999886,-0.012198,-0.002883,0.004753,0.006430,-32.274475,-43.596653,38.116302,,,,,,,1
1514403882.490184,0.627992,1.555602,1.091095,-0.010381,0.000518,-0.002192,0.008920,-0.999885,-0.012286,-0.000543,0.005088,0.005969,-32.274475,-43.596653,38.116302,,,,,,,1
1514403882.500163,0.626050,1.555539,1.093045,-0.008250,-0.000574,-0.001123,0.008937,-0.999884,-0.012359,0.000371,0.005026,0.005706,-32.400543,-43.608368,38.084717,,,,,,,1
1514403882.510142,0.623527,1.555470,1.095543,-0.008257,-0.001660,-0.000059,0.008942,-0.999883,-0.012433,0.000213,0.004796,0.005017,-32.400543,-43.608368,38.084717,,,,,,,1
1514403882.520152,0.620926,1.555439,1.098117,-0.005053,-0.001701,0.002086,0.008927,-0.999882,-0.012479,0.001633,0.003727,0.003843,-32.387924,-43.356647,38.076416,,,,,,,1
1514403882.530131,0.616697,1.555408,1.102284,-0.007219,-0.007077,0.004197,0.008888,-0.999882,-0.012538,0.002281,0.004475,0.004954,-32.387924,-43.356647,38.076416,,,,,,,1
1514403882.540110,0.612047,1.555362,1.106831,-0.007216,-0.008120,0.002054,0.008854,-0.999881,-0.012613,-0.000629,0.003268,0.007516,-32.601318,-43.390739,38.113983,,,,,,,1
1514403882.550120,0.609202,1.555296,1.109606,-0.008265,-0.004859,-0.001143,0.008852,-0.999880,-0.012686,-0.005357,0.002916,0.009192,-32.601318,-43.390739,38.113983,,,,,,,1
1514403882.560099,0.608785,1.555252,1.110058,-0.002877,0.005849,-0.002155,0.008872,-0.999879,-0.012727,-0.006934,0.005082,0.010743,-32.473267,-43.231922,38.064514,,,,,,,1
1514403882.570079,0.608495,1.555233,1.110438,-0.005019,0.005843,-0.001089,0.008884,-0.999879,-0.012751,-0.002521,0.004319,0.008570,-32.473267,-43.231922,38.064514,,,,,,,1
1514403882.580088,0.607627,1.555136,1.111239,-0.011488,-0.009080,-0.004376,0.008927,-0.999877,-0.012837,0.000488,0.006194,0.005894,-32.394180,-43.417542,37.959259,,,,,,,1
1514403882.590068,0.608388,1.555042,1.110419,-0.006109,-0.002646,-0.006477,0.008986,-0.999876,-0.012901,-0.003279,0.004270,0.006523,-32.394180,-43.417542,37.959259,,,,,,,1
1514403882.600047,0.609908,1.554957,1.108855,-0.006110,-0.004779,-0.007556,0.009056,-0.999875,-0.012960,-0.004845,0.004589,0.006108,-32.494476,-43.647766,38.048523,,,,,,,1
1514403882.610057,0.612149,1.554870,1.106523,-0.005064,-0.011210,-0.007583,0.009137,-0.999873,-0.013013,-0.000668,0.005015,0.004789,-32.494476,-43.647766,38.048523,,,,,,,1
1514403882.620036,0.612249,1.554770,1.106308,-0.009345,-0.011227,-0.005451,0.009195,-0.999872,-0.013093,0.000922,0.004022,0.005952,-32.357483,-43.405529,38.080872,,,,,,,1
1514403882.630015,0.611629,1.554673,1.106849,-0.010406,-0.008024,-0.004369,0.009245,-0.999870,-0.013181,-0.000746,0.005363,0.006315,-32.357483,-43.405529,38.080872,,,,,,,1
1514403882.640025,0.610207,1.554580,1.108215,-0.009342,-0.008039,-0.003298,0.009278,-0.999869,-0.013269,0.000289,0.004873,0.006113,-32.621582,-43.555840,38.166656,,,,,,,1
1514403882.650004,0.608397,1.554484,1.109933,-0.009346,-0.009110,-0.003303,0.009308,-0.999867,-0.013363,0.001709,0.003834,0.006222,-32.621582,-43.555840,38.166656,,,,,,,1
1514403882.659983,0.606017,1.554397,1.112212,-0.009359,-0.009130,-0.001164,0.009324,-0.999866,-0.013454,0.000808,0.004794,0.006115,-32.482300,-43.498005,38.120300,,,,,,,1
1514403882.669993,0.603676,1.554330,1.114477,-0.008289,-0.009135,-0.001162,0.009332,-0.999864,-0.013534,-0.000726,0.004717,0.006881,-32.482300,-43.498005,38.120300,,,,,,,1
1514403882.679972,0.601419,1.554274,1.116667,-0.007199,-0.004877,-0.000071,0.009335,-0.999864,-0.013603,-0.001598,0.004243,0.008339,-32.271240,-43.492840,38.223572,,,,,,,1
1514403882.689952,0.599240,1.554195,1.118840,-0.009315,0.000501,-0.001120,0.009345,-0.999862,-0.013682,-0.002143,0.004531,0.008510,-32.271240,-43.492840,38.223572,,,,,,,1
1514403882.699961,0.597885,1.554104,1.120128,-0.009340,-0.006965,-0.003293,0.009373,-0.999861,-0.013762,-0.000690,0.005064,0.008223,-32.330902,-43.500526,38.231995,,,,,,,1
1514403882.709941,0.596751,1.553986,1.121198,-0.011471,-0.006913,-0.006505,0.009425,-0.999859,-0.013874,-0.003078,0.004269,0.006656,-32.330902,-43.500526,38.231995,,,,,,,1
1514403882.719920,0.596381,1.553888,1.121525,-0.010400,-0.005879,-0.004360,0.009479,-0.999857,-0.013963,-0.002658,0.003824,0.006334,-32.320465,-43.593094,38.208740,,,,,,,1
1514403882.729930,0.597064,1.553768,1.120735,-0.008264,-0.010115,-0.008653,0.009554,-0.999855,-0.014054,-0.001956,0.004509,0.005814,-32.320465,-43.593094,38.208740,,,,,,,1
1514403882.739909,0.597803,1.553644,1.119923,-0.011459,-0.005815,-0.008640,0.009635,-0.999853,-0.014149,-0.001212,0.004095,0.006352,-32.388931,-43.409241,38.162750,,,,,,,1
1514403882.749888,0.597657,1.553500,1.120028,-0.013598,-0.004750,-0.007569,0.009714,-0.999850,-0.014271,-0.001520,0.004153,0.006718,-32.388931,-43.409241,38.162750,,,,,,,1
1514403882.759898,0.596816,1.553375,1.120788,-0.011483,-0.009069,-0.005446,0.009772,-0.999848,-0.014381,0.001047,0.004182,0.006905,-32.126740,-43.393135,38.020386,,,,,,,1
1514403882.769877,0.595115,1.553257,1.122400,-0.012563,-0.011221,-0.004387,0.009818,-0.999846,-0.014502,0.001657,0.004668,0.005698,-32.126740,-43.393135,38.020386,,,,,,,1
1514403882.779856,0.593118,1.553117,1.124285,-0.014691,-0.010133,-0.005456,0.009865,-0.999844,-0.014635,0.000709,0.005734,0.005067,-32.127731,-43.368839,38.239410,,,,,,,1
1514403882.789866,0.589808,1.553004,1.127500,-0.013634,-0.011252,-0.002250,0.009884,-0.999842,-0.014768,0.000263,0.005167,0.005124,-32.127731,-43.368839,38.239410,,,,,,,1
1514403882.799845,0.586081,1.552890,1.131139,-0.012557,-0.008036,-0.002234,0.009893,-0.999840,-0.014901,0.000880,0.005028,0.006112,-32.120239,-43.481796,38.156250,,,,,,,1
1514403882.809825,0.583442,1.552858,1.133776,-0.001826,0.004703,0.003190,0.009870,-0.999839,-0.014953,0.000780,0.003486,0.008071,-32.120239,-43.481796,38.156250,,,,,,,1
1514403882.819834,0.580645,1.552912,1.136693,-0.000754,0.007852,0.007484,0.009801,-0.999840,-0.014939,0.000163,0.003746,0.003159,-32.265167,-43.660255,38.148315,,,,,,,1
1514403882.829814,0.578051,1.552899,1.139299,-0.003977,0.000439,0.002097,0.009769,-0.999840,-0.014975,0.000561,0.005928,0.004217,-32.265167,-43.660255,38.148315,,,,,,,1
1514403882.839793,0.577460,1.552884,1.139939,-0.000737,0.006881,-0.000007,0.009765,-0.999840,-0.014988,-0.005020,0.001335,0.009617,-32.276855,-43.674744,38.162964,,,,,,,1
1514403882.849803,0.578088,1.552877,1.139341,-0.000755,0.000483,-0.002175,0.009778,-0.999839,-0.014987,-0.008679,0.003151,0.007937,-32.276855,-43.674744,38.162964,,,,,,,1
1514403882.859782,0.579721,1.552833,1.137691,-0.002903,-0.002673,-0.005402,0.009826,-0.999839,-0.015007,-0.003113,0.005561,0.004174,-32.316788,-43.392349,38.082397,,,,,,,1
1514403882.869761,0.581227,1.552792,1.136142,-0.001845,-0.004834,-0.004340,0.009869,-0.999838,-0.015023,-0.000317,0.004446,0.004922,-32.316788,-43.392349,38.082397,,,,,,,1
1514403882.879771,0.582072,1.552733,1.135203,-0.003996,-0.010172,-0.005437,0.009912,-0.999837,-0.015061,-0.000589,0.006032,0.004960,-32.434326,-43.592018,38.127808,,,,,,,1
1514403882.889750,0.581898,1.552683,1.135320,-0.005059,-0.005927,-0.002211,0.009939,-0.999836,-0.015108,-0.001760,0.005283,0.007646,-32.434326,-43.592018,38.127808,,,,,,,1
1514403882.899730,0.581668,1.552650,1.135543,-0.003961,0.001567,-0.002176,0.009955,-0.999835,-0.015140,-0.000800,0.004001,0.005664,-32.604660,-43.501587,38.201538,,,,,,,1
1514403882.909739,0.580891,1.552605,1.136305,-0.005046,-0.001657,-0.001123,0.009967,-0.999835,-0.015183,0.001111,0.005206,0.005234,-32.604660,-43.501587,38.201538,,,,,,,1
1514403882.919719,0.579425,1.552580,1.137780,-0.002896,0.003631,0.003183,0.009954,-0.999834,-0.015212,0.000712,0.004381,0.005065,-32.403946,-43.639065,38.137054,,,,,,,1
1514403882.929698,0.577511,1.552589,1.139725,0.000314,0.003618,0.003189,0.009918,-0.999834,-0.015220,0.001267,0.004168,0.004157,-32.403946,-43.639065,38.137054,,,,,,,1
1514403882.939708,0.575267,1.552635,1.142031,0.002455,0.005723,0.005341,0.009858,-0.999835,-0.015203,0.002334,0.004046,0.003896,-32.418579,-43.581459,38.170837,,,,,,,1
1514403882.949687,0.572400,1.552687,1.144914,0.001362,0.000358,0.006385,0.009789,-0.999836,-0.015192,0.001396,0.004810,0.003992,-32.418579,-43.581459,38.170837,,,,,,,1
1514403882.959666,0.569564,1.552749,1.147759,0.002429,0.001415,0.007461,0.009714,-0.999837,-0.015170,-0.000589,0.004155,0.003711,-32.465607,-43.484951,38.189697,,,,,,,1
1514403882.969676,0.567229,1.552802,1.150097,0.002424,-0.000713,0.006382,0.009650,-0.999838,-0.015147,-0.001852,0.004202,0.004771,-32.465607,-43.484951,38.189697,,,,,,,1
1514403882.979655,0.565083,1.552844,1.152269,0.000302,0.003578,0.006397,0.009596,-0.999839,-0.015135,-0.001708,0.003303,0.007582,-32.323563,-43.285294,38.276825,,,,,,,1
1514403882.989634,0.561386,1.552927,1.156051,0.003531,0.012077,0.010719,0.009497,-0.999840,-0.015102,-0.001410,0.002648,0.008205,-32.323563,-43.285294,38.276825,,,,,,,1
1514403882.999644,0.557816,1.553010,1.159734,0.003533,0.012076,0.010719,0.009398,-0.999842,-0.015063,0.000902,0.005259,0.007494,-32.435043,-43.476013,38.129181,,,,,,,1
1514403883.009623,0.554517,1.553096,1.163185,0.003546,0.014247,0.008590,0.009305,-0.999843,-0.015024,-0.001324,0.004421,0.008172,-32.435043,-43.476013,38.129181,,,,,,,1
1514403883.019603,0.553841,1.553163,1.164008,0.004624,0.014286,0.005383,0.009260,-0.999845,-0.014974,-0.002561,0.004804,0.005575,-32.604111,-43.584473,38.323456,,,,,,,1
1514403883.029612,0.554737,1.553223,1.163236,0.005703,0.014325,0.002176,0.009241,-0.999846,-0.014914,-0.005655,0.006010,0.001929,-32.604111,-43.584473,38.323456,,,,,,,1
1514403883.039592,0.555306,1.553282,1.162771,0.005680,0.008955,0.003222,0.009216,-0.999847,-0.014854,-0.003341,0.005065,0.002662,-32.349976,-43.615196,38.223877,,,,,,,1
1514403883.049571,0.554101,1.553341,1.164014,0.003506,0.001437,0.005324,0.009168,-0.999848,-0.014816,0.001986,0.004730,0.002075,-32.349976,-43.615196,38.223877,,,,,,,1
1514403883.059581,0.552890,1.553420,1.165256,0.005654,0.004629,0.006411,0.009109,-0.999849,-0.014761,0.002717,0.004305,0.003057,-32.353012,-43.755295,38.053680,,,,,,,1
1514403883.069560,0.550409,1.553510,1.167807,0.005660,0.007814,0.008565,0.009024,-0.999851,-0.014705,-0.000357,0.003833,0.005824,-32.353012,-43.755295,38.053680,,,,,,,1
1514403883.079539,0.547959,1.553603,1.170334,0.005660,0.007813,0.008565,0.008940,-0.999852,-0.014649,-0.000151,0.004766,0.006104,-32.507278,-43.360832,37.921021,,,,,,,1
1514403883.089549,0.544501,1.553712,1.173849,0.006720,0.006709,0.010701,0.008834,-0.999854,-0.014587,0.001512,0.004371,0.004807,-32.507278,-43.360832,37.921021,,,,,,,1
1514403883.099528,0.540812,1.553865,1.177598,0.008845,0.002380,0.012825,0.008705,-0.999857,-0.014496,0.002678,0.004999,0.002792,-32.602951,-43.528503,38.115479,,,,,,,1
1514403883.109507,0.535551,1.554001,1.182853,0.007753,-0.001929,0.014943,0.008558,-0.999859,-0.014423,0.001283,0.004681,0.001911,-32.602951,-43.528503,38.115479,,,,,,,1
1514403883.119517,0.530878,1.554151,1.187537,0.008838,0.001294,0.013890,0.008418,-0.999861,-0.014339,-0.000712,0.004637,0.004039,-32.427399,-43.449688,38.062805,,,,,,,1
1514403883.129496,0.526416,1.554287,1.192026,0.007777,0.003440,0.013897,0.008287,-0.999864,-0.014260,-0.002549,0.005357,0.005089,-32.427399,-43.449688,38.062805,,,,,,,1
1514403883.139476,0.522585,1.554432,1.195892,0.010990,0.006650,0.013917,0.008156,-0.999866,-0.014159,-0.001228,0.004551,0.006591,-32.642731,-43.551521,38.111633,,,,,,,1
1514403883.149485,0.518230,1.554584,1.200345,0.008869,0.010958,0.012863,0.008018,-0.999869,-0.014062,-0.001121,0.004721,0.008156,-32.642731,-43.551521,38.111633,,,,,,,1
1514403883.159465,0.514466,1.554716,1.204187,0.007793,0.006702,0.010703,0.007902,-0.999871,-0.013980,-0.002348,0.006234,0.006473,-32.568161,-43.613075,38.099731,,,,,,,1
1514403883.169444,0.513053,1.554843,1.205647,0.009930,0.004580,0.008558,0.007819,-0.999873,-0.013879,-0.004141,0.004435,0.005334,-32.568161,-43.613075,38.099731,,,,,,,1
1514403883.179454,0.509944,1.554970,1.208810,0.007785,0.004559,0.010693,0.007715,-0.999875,-0.013794,-0.001565,0.004620,0.004623,-32.393494,-43.364498,38.115936,,,,,,,1
1514403883.189433,0.507569,1.555085,1.211171,0.008837,-0.001843,0.008527,0.007625,-0.999877,-0.013710,0.000019,0.004119,0.005867,-32.393494,-43.364498,38.115936,,,,,,,1
1514403883.199443,0.506015,1.555193,1.212702,0.008842,-0.000755,0.007463,0.007550,-0.999878,-0.013625,-0.002912,0.003891,0.005965,-32.456009,-43.451939,38.116455,,,,,,,1
1514403883.209422,0.504301,1.555304,1.214421,0.008850,0.001387,0.007472,0.007470,-0.999880,-0.013535,-0.003029,0.005175,0.006165,-32.456009,-43.451939,38.116455,,,,,,,1
1514403883.219401,0.502740,1.555408,1.215963,0.007763,-0.001816,0.007456,0.007395,-0.999882,-0.013449,-0.001597,0.005527,0.005331,-32.476303,-43.443836,38.131897,,,,,,,1
1514403883.229411,0.500371,1.555525,1.218299,0.008818,-0.005048,0.008513,0.007309,-0.999883,-0.013367,-0.000061,0.003759,0.006028,-32.476303,-43.443836,38.131897,,,,,,,1
1514403883.239390,0.497886,1.555634,1.220735,0.007755,-0.003994,0.009585,0.007222,-0.999885,-0.013287,-0.000798,0.004829,0.005917,-32.577499,-43.397900,38.225739,,,,,,,1
1514403883.249332,0.496560,1.555736,1.222027,0.007771,-0.002866,0.005312,0.007156,-0.999887,-0.013207,-0.002457,0.004876,0.006417,-32.577499,-43.397900,38.225739,,,,,,,1
1514403883.259342,0.494760,1.555805,1.223802,0.005638,-0.000714,0.005318,0.007097,-0.999888,-0.013154,-0.002214,0.004770,0.007997,-32.348175,-43.301254,38.203247,,,,,,,1
1514403883.269321,0.493365,1.555881,1.225215,0.005649,0.001443,0.004258,0.007044,-0.999889,-0.013100,-0.003275,0.004497,0.008141,-32.348175,-43.301254,38.203247,,,,,,,1
1514403883.279301,0.492678,1.555945,1.225916,0.005649,0.001443,0.004258,0.007001,-0.999890,-0.013041,-0.003430,0.003964,0.009272,-32.414017,-43.094360,38.195374,,,,,,,1
1514403883.289310,0.492556,1.555992,1.226040,0.002441,0.000414,0.002109,0.006978,-0.999890,-0.013003,-0.004140,0.004590,0.007921,-32.414017,-43.094360,38.195374,,,,,,,1
1514403883.299290,0.493688,1.556013,1.224859,0.002431,-0.004900,-0.001124,0.006983,-0.999891,-0.012976,-0.004511,0.003828,0.007330,-32.580246,-43.254349,38.170380,,,,,,,1
1514403883.309269,0.496172,1.556025,1.222337,0.001368,-0.003810,-0.002191,0.007010,-0.999891,-0.012949,-0.002386,0.005094,0.004145,-32.580246,-43.254349,38.170380,,,,,,,1
1514403883.319279,0.497990,1.556045,1.220437,0.002412,-0.009181,-0.001143,0.007020,-0.999891,-0.012912,-0.000596,0.006788,0.002414,-32.172745,-43.411236,38.021210,,,,,,,1
1514403883.329258,0.498468,1.556082,1.219864,0.004546,-0.009218,0.001000,0.007008,-0.999892,-0.012874,0.001339,0.004027,0.004268,-32.172745,-43.411236,38.021210,,,,,,,1
1514403883.339237,0.497032,1.556125,1.221220,0.002408,-0.007113,0.004214,0.006969,-0.999892,-0.012847,0.002782,0.003555,0.006972,-32.269775,-43.539688,38.077301,,,,,,,1
1514403883.349247,0.495449,1.556183,1.222746,0.003486,-0.003918,0.005300,0.006919,-0.999893,-0.012803,0.000787,0.004852,0.006211,-32.269775,-43.539688,38.077301,,,,,,,1
1514403883.359226,0.495561,1.556249,1.222627,0.005648,-0.000672,0.002109,0.006890,-0.999894,-0.012747,-0.002541,0.003007,0.006872,-32.399948,-43.497017,38.158813,,,,,,,1
1514403883.369205,0.496026,1.556331,1.222173,0.007789,0.000376,0.003187,0.006856,-0.999895,-0.012670,-0.002553,0.003435,0.005376,-32.399948,-43.497017,38.158813,,,,,,,1
