timestamp(unix),attitude_roll(radians),attitude_pitch(radians),attitude_yaw(radians),rotation_rate_x(radians/s),rotation_rate_y(radians/s),rotation_rate_z(radians/s),gravity_x(G),gravity_y(G),gravity_z(G),user_acc_x(G),user_acc_y(G),user_acc_z(G),magnetic_field_x(microteslas),magnetic_field_y(microteslas),magnetic_field_z(microteslas),latitude(degree),longitude(degree),altitude(meter),speed(m/s),course(degree),timestamp(unix),User Mark
1514403825.812356,-1.255977,1.487354,-0.307351,-0.141188,-0.061058,0.065768,-0.079101,-0.996521,-0.025759,0.019012,-0.015091,0.031207,4.575195,-35.312313,-26.809631,,,,,,,1
1514403825.822335,-1.245133,1.486228,-0.318756,-0.124083,-0.055929,0.077587,-0.079881,-0.996426,-0.026975,0.020876,-0.000202,0.003080,4.575195,-35.312313,-26.809631,,,,,,,1
1514403825.832345,-1.233906,1.485155,-0.330647,-0.132666,-0.070714,0.064670,-0.080586,-0.996335,-0.028224,0.023411,0.001187,0.011272,4.678680,-35.392971,-26.666687,,,,,,,1
,,,,,,,,,,,,,,,,33.823692,-116.547409,139.958038,-1.000000,-1.000000,1514403820.802056,1
1514403825.842324,-1.222549,1.484156,-0.343015,-0.133853,-0.105985,0.059162,-0.081195,-0.996249,-0.029477,0.052005,-0.003614,0.012861,4.678680,-35.392971,-26.666687,,,,,,,1
1514403825.852303,-1.211881,1.483042,-0.355229,-0.138416,-0.176814,0.069535,-0.081917,-0.996152,-0.030733,0.028878,-0.001986,0.007463,4.281158,-35.194351,-26.553345,,,,,,,1
1514403825.862313,-1.202968,1.482036,-0.366592,-0.125841,-0.260168,0.051001,-0.082574,-0.996063,-0.031821,-0.012198,-0.004715,0.000724,4.281158,-35.194351,-26.553345,,,,,,,1
1514403825.872292,-1.196290,1.481387,-0.376155,-0.097035,-0.297419,0.025214,-0.082962,-0.996006,-0.032609,-0.011246,0.002124,0.003708,4.156799,-35.109444,-26.658142,,,,,,,1
1514403825.882272,-1.191260,1.480941,-0.384003,-0.079770,-0.266267,0.013618,-0.083210,-0.995966,-0.033190,-0.004406,0.001840,0.009158,4.156799,-35.109444,-26.658142,,,,,,,1
1514403825.892281,-1.186821,1.480752,-0.390667,-0.060250,-0.213579,-0.007503,-0.083235,-0.995949,-0.033629,-0.011492,0.005272,0.000243,3.793274,-35.042259,-26.895508,,,,,,,1
1514403825.902261,-1.182507,1.480682,-0.396946,-0.055850,-0.186718,-0.014862,-0.083155,-0.995942,-0.034015,-0.023778,0.011369,0.000125,3.793274,-35.042259,-26.895508,,,,,,,1
1514403825.912240,-1.177490,1.480608,-0.403565,-0.060023,-0.156687,-0.015806,-0.083051,-0.995936,-0.034460,-0.020403,0.011439,0.002691,3.978058,-34.959129,-26.998596,,,,,,,1
1514403825.922250,-1.172376,1.480598,-0.410102,-0.052448,-0.137365,-0.021054,-0.082883,-0.995935,-0.034888,-0.004931,0.014200,-0.005700,3.978058,-34.959129,-26.998596,,,,,,,1
1514403825.932229,-1.168606,1.480521,-0.415252,-0.045031,-0.147258,-0.005040,-0.082821,-0.995928,-0.035230,-0.001560,0.016772,-0.009432,3.755646,-34.815407,-26.990112,,,,,,,1
1514403825.942208,-1.166349,1.480281,-0.419076,-0.041894,-0.154984,0.010975,-0.082962,-0.995906,-0.035512,-0.004578,0.006587,-0.005641,3.755646,-34.815407,-26.990112,,,,,,,1
1514403825.952187,-1.164325,1.480044,-0.422574,-0.037593,-0.150671,0.007792,-0.083108,-0.995885,-0.035773,0.003548,0.000615,0.005896,3.446472,-34.820179,-26.927673,,,,,,,1
1514403825.962197,-1.162504,1.479846,-0.425656,-0.032102,-0.114245,0.005825,-0.083222,-0.995867,-0.036002,0.000169,0.003039,0.006904,3.446472,-34.820179,-26.927673,,,,,,,1
1514403825.972176,-1.161016,1.479709,-0.427930,-0.020174,-0.073546,0.002820,-0.083294,-0.995854,-0.036180,-0.009525,0.005666,0.003420,3.519989,-34.720146,-27.228516,,,,,,,1
1514403825.982156,-1.159397,1.479626,-0.430001,-0.018936,-0.033818,-0.004488,-0.083310,-0.995847,-0.036348,-0.015888,0.005399,0.004152,3.519989,-34.720146,-27.228516,,,,,,,1
1514403825.992165,-1.157669,1.479686,-0.431831,-0.011333,-0.009080,-0.013991,-0.083193,-0.995852,-0.036468,-0.013166,0.006671,0.004043,3.648529,-34.818871,-27.276672,,,,,,,1
1514403826.002145,-1.156009,1.479856,-0.433513,-0.004845,0.001750,-0.024627,-0.082977,-0.995868,-0.036538,-0.016404,0.007831,0.000542,3.648529,-34.818871,-27.276672,,,,,,,1
1514403826.012124,-1.154593,1.480151,-0.434934,0.000481,-0.012035,-0.036445,-0.082655,-0.995895,-0.036536,-0.017488,0.010421,-0.008295,3.513794,-34.858170,-27.158081,,,,,,,1
1514403826.022134,-1.152450,1.480527,-0.437399,-0.010288,-0.036528,-0.044061,-0.082235,-0.995928,-0.036561,-0.004145,0.011828,-0.004821,3.513794,-34.858170,-27.158081,,,,,,,1
1514403826.032113,-1.148952,1.480872,-0.441534,-0.023279,-0.080368,-0.046418,-0.081793,-0.995960,-0.036708,0.000189,0.002475,0.003962,3.472351,-34.754204,-27.116943,,,,,,,1
1514403826.042092,-1.144799,1.481137,-0.446966,-0.037420,-0.141395,-0.044576,-0.081397,-0.995983,-0.036937,-0.007165,-0.004856,0.011470,3.472351,-34.754204,-27.116943,,,,,,,1
1514403826.052102,-1.139639,1.481267,-0.453916,-0.056897,-0.192860,-0.035215,-0.081086,-0.995995,-0.037301,-0.010451,-0.006355,0.017114,3.476929,-34.868324,-27.122498,,,,,,,1
1514403826.062081,-1.133282,1.481217,-0.462370,-0.074093,-0.207902,-0.026755,-0.080893,-0.995990,-0.037837,-0.001672,-0.004681,0.013515,3.476929,-34.868324,-27.122498,,,,,,,1
1514403826.072060,-1.126266,1.481155,-0.471598,-0.081667,-0.233520,-0.031162,-0.080679,-0.995985,-0.038430,0.011984,-0.000460,0.006768,3.445312,-34.670509,-27.320129,,,,,,,1
1514403826.082070,-1.118316,1.481006,-0.482199,-0.095718,-0.268869,-0.027066,-0.080506,-0.995972,-0.039136,0.014237,0.001388,0.004559,3.445312,-34.670509,-27.320129,,,,,,,1
1514403826.092049,-1.109773,1.480791,-0.493737,-0.104437,-0.313812,-0.028351,-0.080361,-0.995952,-0.039917,0.005822,-0.001118,0.001541,3.282745,-34.571152,-27.189453,,,,,,,1
1514403826.102029,-1.101079,1.480585,-0.505987,-0.111050,-0.368371,-0.031816,-0.080194,-0.995934,-0.040708,0.009058,0.005821,-0.005145,3.282745,-34.571152,-27.189453,,,,,,,1
1514403826.112038,-1.093232,1.480206,-0.517940,-0.112379,-0.420112,-0.007448,-0.080211,-0.995899,-0.041510,0.014293,0.017918,-0.007302,2.809235,-34.495544,-27.300171,,,,,,,1
1514403826.122018,-1.087874,1.479605,-0.527387,-0.099522,-0.397985,0.016204,-0.080517,-0.995845,-0.042217,0.001583,0.013957,-0.004688,2.809235,-34.495544,-27.300171,,,,,,,1
1514403826.131997,-1.085743,1.479229,-0.532995,-0.050047,-0.334824,0.004808,-0.080758,-0.995811,-0.042563,-0.004585,-0.007836,-0.012383,2.846954,-34.649685,-27.525208,,,,,,,1
1514403826.142007,-1.085876,1.479182,-0.535839,-0.019859,-0.285427,-0.013102,-0.080806,-0.995806,-0.042575,-0.002019,-0.015470,-0.005444,2.846954,-34.649685,-27.525208,,,,,,,1
1514403826.151986,-1.085718,1.479542,-0.539017,-0.007045,-0.321317,-0.056024,-0.080482,-0.995839,-0.042421,-0.000053,-0.011470,0.000551,2.521667,-34.610199,-27.274231,,,,,,,1
1514403826.161965,-1.082944,1.480113,-0.545477,-0.030746,-0.384074,-0.082016,-0.079861,-0.995891,-0.042377,-0.005252,0.000377,0.003284,2.521667,-34.610199,-27.274231,,,,,,,1
1514403826.171975,-1.080063,1.480698,-0.552688,-0.031009,-0.456936,-0.081271,-0.079225,-0.995944,-0.042332,-0.014724,-0.005948,0.001118,2.463898,-34.499405,-27.452271,,,,,,,1
1514403826.181954,-1.075147,1.481240,-0.562392,-0.056710,-0.473784,-0.095297,-0.078540,-0.995992,-0.042464,-0.005292,0.002066,0.004851,2.463898,-34.499405,-27.452271,,,,,,,1
1514403826.191934,-1.068469,1.482061,-0.573732,-0.038420,-0.468049,-0.128397,-0.077538,-0.996066,-0.042594,-0.000693,0.008730,-0.008035,2.367035,-34.460159,-27.496887,,,,,,,1
1514403826.201915,-1.060470,1.483103,-0.586003,-0.040310,-0.414240,-0.146343,-0.076287,-0.996157,-0.042704,0.000374,0.003390,-0.008611,2.367035,-34.460159,-27.496887,,,,,,,1
1514403826.211895,-1.052984,1.484214,-0.597241,-0.028357,-0.363958,-0.145028,-0.075003,-0.996254,-0.042726,-0.003702,-0.002922,-0.012419,2.252258,-34.503136,-27.515991,,,,,,,1
1514403826.221874,-1.045350,1.485292,-0.608066,-0.024943,-0.305131,-0.139411,-0.073744,-0.996347,-0.042758,-0.007783,0.002282,-0.002576,1.798431,-34.492893,-27.516724,,,,,,,1
1514403826.231884,-1.038753,1.486429,-0.617185,-0.003272,-0.230267,-0.136899,-0.072481,-0.996443,-0.042667,-0.020903,0.008131,0.001529,1.798431,-34.492893,-27.516724,,,,,,,1
1514403826.241863,-1.032589,1.487513,-0.625096,-0.001972,-0.160792,-0.125890,-0.071287,-0.996534,-0.042558,-0.035708,0.006742,0.004564,1.868469,-34.330551,-27.607666,,,,,,,1
1514403826.251842,-1.025601,1.488656,-0.633334,0.000372,-0.116683,-0.140663,-0.070010,-0.996628,-0.042462,-0.046322,-0.003875,0.007138,1.868469,-34.330551,-27.607666,,,,,,,1
1514403826.261852,-1.014421,1.490173,-0.645537,-0.006944,-0.110550,-0.196268,-0.068245,-0.996752,-0.042442,-0.029351,-0.003859,0.013817,1.835938,-34.287102,-27.561035,,,,,,,1
1514403826.271831,-1.000035,1.492011,-0.661179,-0.007958,-0.118683,-0.228394,-0.066080,-0.996898,-0.042426,-0.009512,0.021251,0.008308,1.835938,-34.287102,-27.561035,,,,,,,1
1514403826.281810,-0.983520,1.493747,-0.678483,-0.018518,-0.071698,-0.214298,-0.063927,-0.997033,-0.042551,-0.013084,0.033151,0.014460,1.925598,-34.367523,-27.519714,,,,,,,1
1514403826.291820,-0.967893,1.495198,-0.694493,-0.020482,-0.006699,-0.188340,-0.062060,-0.997144,-0.042722,-0.033353,0.039472,0.008329,1.925598,-34.367523,-27.519714,,,,,,,1
1514403826.301799,-0.948791,1.497022,-0.712779,0.000387,0.097882,-0.244524,-0.059751,-0.997280,-0.042838,-0.036822,0.030773,0.007957,2.124786,-34.480854,-27.425537,,,,,,,1
1514403826.311779,-0.927497,1.498957,-0.733545,-0.011625,0.035764,-0.241615,-0.057275,-0.997421,-0.042938,0.017007,-0.030045,0.007782,2.124786,-34.480854,-27.425537,,,,,,,1
1514403826.321788,-0.905902,1.500441,-0.755187,-0.036514,-0.013899,-0.205514,-0.055168,-0.997526,-0.043250,0.013786,-0.022326,0.009742,2.132477,-34.573898,-27.602722,,,,,,,1
1514403826.331768,-0.881754,1.502026,-0.779491,-0.026735,-0.003737,-0.247166,-0.052884,-0.997636,-0.043562,-0.005756,0.031114,0.010832,2.132477,-34.573898,-27.602722,,,,,,,1
1514403826.341747,-0.854242,1.504025,-0.806744,-0.006215,0.032888,-0.268358,-0.050156,-0.997772,-0.043685,-0.007721,0.037292,0.009826,2.248596,-34.443420,-27.493469,,,,,,,1
1514403826.351757,-0.831493,1.505302,-0.829251,-0.031097,0.029521,-0.170014,-0.048204,-0.997856,-0.043953,-0.006880,0.012138,0.011315,2.248596,-34.443420,-27.493469,,,,,,,1
1514403826.361736,-0.813121,1.506041,-0.847181,-0.035434,0.041873,-0.131461,-0.046850,-0.997904,-0.044322,0.018728,0.018625,0.003230,2.548523,-34.377991,-27.584045,,,,,,,1
1514403826.371715,-0.795173,1.506764,-0.864914,-0.029103,0.016151,-0.132634,-0.045528,-0.997951,-0.044647,0.048870,0.025081,-0.003250,2.548523,-34.377991,-27.584045,,,,,,,1
1514403826.381725,-0.779211,1.507408,-0.880978,-0.027141,-0.018378,-0.114602,-0.044357,-0.997992,-0.044909,0.031311,0.013113,0.000064,2.618225,-34.135143,-27.627869,,,,,,,1
1514403826.391704,-0.764444,1.507906,-0.896094,-0.031536,-0.038881,-0.101866,-0.043340,-0.998023,-0.045196,0.002096,0.000052,0.016555,2.618225,-34.135143,-27.627869,,,,,,,1
1514403826.401683,-0.747969,1.508303,-0.913115,-0.047667,-0.064466,-0.106288,-0.042318,-0.998048,-0.045611,-0.010325,0.002961,0.025133,2.577911,-34.352753,-27.725342,,,,,,,1
1514403826.411693,-0.729828,1.508646,-0.932098,-0.057355,-0.085766,-0.112817,-0.041254,-0.998069,-0.046115,-0.016546,0.003761,0.024218,2.577911,-34.352753,-27.725342,,,,,,,1
1514403826.421672,-0.708972,1.508926,-0.953968,-0.071325,-0.110203,-0.123647,-0.040103,-0.998087,-0.046754,-0.014234,0.005380,0.017701,2.643829,-34.316647,-27.656128,,,,,,,1
1514403826.431652,-0.686529,1.509193,-0.977800,-0.073575,-0.145424,-0.132365,-0.038873,-0.998103,-0.047435,-0.001166,0.015147,0.002818,2.643829,-34.316647,-27.656128,,,,,,,1
1514403826.441661,-0.664373,1.509426,-1.001592,-0.071542,-0.170141,-0.127124,-0.037669,-0.998117,-0.048100,0.002818,0.014139,-0.009105,2.640106,-34.213715,-27.933228,,,,,,,1
1514403826.451641,-0.642299,1.509610,-1.025604,-0.073789,-0.200111,-0.128331,-0.036486,-0.998129,-0.048771,-0.003919,0.011267,-0.008770,2.640106,-34.213715,-27.933228,,,,,,,1
1514403826.461620,-0.618512,1.509837,-1.051678,-0.077103,-0.240571,-0.145632,-0.035184,-0.998143,-0.049439,-0.004519,0.017720,-0.009002,2.594452,-34.205765,-27.840393,,,,,,,1
1514403826.471599,-0.591771,1.510043,-1.081012,-0.087810,-0.255310,-0.161760,-0.033733,-0.998155,-0.050189,-0.008320,0.017366,-0.003385,2.594452,-34.205765,-27.840393,,,,,,,1
1514403826.481609,-0.561517,1.510299,-1.113448,-0.083279,-0.204668,-0.185057,-0.032063,-0.998171,-0.050969,-0.027706,0.009081,0.005864,2.460449,-34.328156,-27.833801,,,,,,,1
1514403826.491588,-0.526999,1.510670,-1.149616,-0.080844,-0.146448,-0.213671,-0.030097,-0.998193,-0.051723,-0.050347,0.003122,-0.002507,2.460449,-34.328156,-27.833801,,,,,,,1
1514403826.501567,-0.488098,1.511054,-1.189940,-0.083979,-0.141863,-0.235048,-0.027884,-0.998216,-0.052517,-0.052072,0.017366,-0.013813,2.770874,-34.106850,-27.939087,,,,,,,1
1514403826.511577,-0.447545,1.511423,-1.231932,-0.077528,-0.134327,-0.239282,-0.025574,-0.998238,-0.053275,-0.021164,0.028511,-0.030633,2.770874,-34.106850,-27.939087,,,,,,,1
1514403826.521556,-0.409544,1.511795,-1.271392,-0.058387,-0.153900,-0.223292,-0.023382,-0.998260,-0.053865,0.011770,0.017776,-0.028396,2.459076,-34.197487,-27.909607,,,,,,,1
1514403826.531536,-0.374316,1.512148,-1.308637,-0.048994,-0.210823,-0.214973,-0.021341,-0.998281,-0.054326,0.026285,0.003789,-0.021022,2.459076,-34.197487,-27.909607,,,,,,,1
1514403826.541545,-0.337979,1.512360,-1.346899,-0.060607,-0.173215,-0.220174,-0.019282,-0.998293,-0.054863,0.025569,0.002901,-0.002632,2.586273,-34.195911,-28.175659,,,,,,,1
1514403826.551525,-0.301146,1.512432,-1.385290,-0.062674,-0.147615,-0.211506,-0.017227,-0.998297,-0.055466,0.007278,0.011343,0.027496,2.586273,-34.195911,-28.175659,,,,,,,1
1514403826.561504,-0.268716,1.512419,-1.419406,-0.055380,-0.181194,-0.185973,-0.015423,-0.998297,-0.056007,-0.014362,0.002615,0.016289,2.520477,-34.273109,-28.052063,,,,,,,1
1514403826.571514,-0.238826,1.512329,-1.451319,-0.055455,-0.194159,-0.177475,-0.013764,-0.998291,-0.056532,-0.006057,-0.007477,0.001097,2.520477,-34.273109,-28.052063,,,,,,,1
1514403826.581493,-0.208974,1.512278,-1.482851,-0.040340,-0.160942,-0.182648,-0.012081,-0.998288,-0.056969,0.018032,0.001477,0.001152,2.514191,-34.056976,-28.216370,,,,,,,1
1514403826.591472,-0.178864,1.512444,-1.514692,-0.011483,-0.172786,-0.186928,-0.010331,-0.998298,-0.057142,0.014710,0.002677,-0.015825,2.514191,-34.056976,-28.216370,,,,,,,1
1514403826.601482,-0.149593,1.512635,-1.545785,-0.011516,-0.176100,-0.179455,-0.008626,-0.998309,-0.057232,-0.017741,0.003131,-0.023700,2.437775,-34.162666,-28.054443,,,,,,,1
1514403826.611461,-0.119251,1.512643,-1.577403,-0.026216,-0.105272,-0.184513,-0.006885,-0.998310,-0.057458,-0.032208,0.010318,-0.002417,2.437775,-34.162666,-28.054443,,,,,,,1
1514403826.621440,-0.086604,1.512633,-1.611092,-0.018692,-0.104073,-0.196260,-0.005006,-0.998309,-0.057660,-0.031737,0.017749,-0.001514,2.569122,-34.254753,-28.134277,,,,,,,1
1514403826.631450,-0.053654,1.512738,-1.644984,0.001721,-0.078473,-0.193971,-0.003098,-0.998315,-0.057689,-0.023116,0.012246,-0.009908,2.569122,-34.254753,-28.134277,,,,,,,1
1514403826.641429,-0.023987,1.512812,-1.675121,-0.002475,-0.037042,-0.167053,-0.001384,-0.998319,-0.057680,-0.004857,0.006895,0.001849,2.617401,-34.001389,-28.268555,,,,,,,1
1514403826.651409,0.006731,1.512799,-1.706150,-0.000189,-0.022683,-0.200142,0.000388,-0.998319,-0.057709,0.014886,0.007428,0.007065,2.617401,-34.001389,-28.268555,,,,,,,1
1514403826.661418,0.105681,1.513236,-1.802465,0.086831,0.376245,-0.576843,0.006041,-0.998344,-0.056952,-0.033812,0.045906,0.010489,2.721313,-34.302567,-28.221191,,,,,,,1
1514403826.671398,0.140646,1.513419,-1.832501,0.018516,0.500287,-0.063003,0.008003,-0.998354,-0.056525,-0.177528,0.066409,0.041419,2.721313,-34.302567,-28.221191,,,,,,,1
1514403826.681377,0.158258,1.513016,-1.847111,-0.041211,0.214351,-0.130701,0.009060,-0.998331,-0.056773,-0.000409,-0.027731,0.030573,3.152039,-34.386971,-28.011780,,,,,,,1
1514403826.691387,0.195887,1.512003,-1.884663,-0.064269,-0.031397,-0.250564,0.011387,-0.998272,-0.057387,0.186229,0.047528,-0.004869,3.152039,-34.386971,-28.011780,,,,,,,1
1514403826.701366,0.225898,1.511027,-1.915609,-0.057253,-0.101043,-0.171713,0.013323,-0.998214,-0.057973,0.097059,-0.021698,0.000066,3.232086,-34.178829,-28.100342,,,,,,,1
1514403826.711345,0.237324,1.510120,-1.928529,-0.078069,-0.164318,-0.080048,0.014199,-0.998160,-0.058703,-0.013162,-0.052469,0.021472,3.232086,-34.178829,-28.100342,,,,,,,1
1514403826.721355,0.244336,1.508710,-1.937626,-0.143521,-0.227053,-0.095418,0.014952,-0.998073,-0.059971,-0.011869,0.024837,0.020603,3.276184,-34.100399,-28.283325,,,,,,,1
1514403826.731334,0.243966,1.504607,-1.938968,-0.574132,-0.100826,-0.114864,0.015923,-0.997810,-0.063967,0.005516,0.118782,0.053912,3.276184,-34.100399,-28.283325,,,,,,,1
1514403826.741313,0.236434,1.500656,-1.933697,-0.290166,-0.206894,-0.037828,0.016367,-0.997541,-0.067930,-0.045710,0.406080,0.100675,3.156433,-33.864330,-28.426025,,,,,,,1
1514403826.751323,0.260849,1.499655,-1.956846,0.016862,0.214577,-0.243975,0.018278,-0.997471,-0.068476,-0.090376,-0.440487,-0.068533,3.156433,-33.864330,-28.426025,,,,,,,1
1514403826.761302,0.302704,1.499365,-1.998282,0.050295,-0.027130,-0.282432,0.021215,-0.997450,-0.067931,0.003367,-0.249285,-0.004121,3.338318,-33.814041,-28.414490,,,,,,,1
1514403826.771282,0.330876,1.498793,-2.027982,0.004686,-0.153309,-0.206065,0.023306,-0.997409,-0.067847,-0.007498,0.094378,-0.060113,3.338318,-33.814041,-28.414490,,,,,,,1
1514403826.781291,0.356874,1.497954,-2.055218,-0.017599,-0.116586,-0.221984,0.025355,-0.997348,-0.068005,0.013967,0.079471,0.011516,3.667358,-33.900978,-28.384277,,,,,,,1
1514403826.791271,0.384288,1.496823,-2.084234,-0.028413,-0.162328,-0.242530,0.027633,-0.997265,-0.068333,0.004029,-0.028873,0.022999,3.667358,-33.900978,-28.384277,,,,,,,1
1514403826.801250,0.411160,1.495739,-2.112692,-0.013389,-0.144280,-0.234936,0.029892,-0.997185,-0.068559,-0.025818,-0.038017,-0.004592,3.547668,-33.670601,-28.479004,,,,,,,1
1514403826.811260,0.437706,1.494827,-2.140304,0.007133,-0.083448,-0.223932,0.032088,-0.997116,-0.068566,-0.022368,0.007141,0.002267,3.547668,-33.670601,-28.479004,,,,,,,1
1514403826.821239,0.464483,1.493988,-2.167501,0.015911,-0.024570,-0.223653,0.034287,-0.997052,-0.068431,-0.013657,0.013531,0.009014,3.484772,-33.752171,-28.403259,,,,,,,1
,,,,,,,,,,,,,,,,33.823689,-116.547426,139.908218,-1.000000,-1.000000,1514403826.807097,1
1514403826.831218,0.491663,1.493002,-2.194746,0.005382,0.009933,-0.237422,0.036598,-0.996976,-0.068341,-0.006981,0.006192,0.009899,3.484772,-33.752171,-28.403259,,,,,,,1
1514403826.841228,0.519705,1.491748,-2.222765,-0.006360,0.003797,-0.255653,0.039122,-0.996877,-0.068375,-0.006133,0.013326,0.007370,3.426178,-33.927361,-28.398499,,,,,,,1
1514403826.851207,0.546195,1.490399,-2.249486,-0.007537,-0.020922,-0.249348,0.041619,-0.996770,-0.068466,-0.012658,0.013768,-0.004486,3.426178,-33.927361,-28.398499,,,,,,,1
1514403826.861187,0.571454,1.489193,-2.275208,0.013726,-0.047944,-0.237666,0.043986,-0.996672,-0.068405,-0.011622,-0.000169,-0.019607,3.650726,-33.848473,-28.512756,,,,,,,1
1514403826.871196,0.595615,1.488270,-2.300195,0.041353,-0.082616,-0.216381,0.046142,-0.996597,-0.068084,0.005234,-0.008027,-0.023682,3.650726,-33.848473,-28.512756,,,,,,,1
1514403826.881176,0.618061,1.487544,-2.323687,0.054061,-0.104334,-0.198272,0.048077,-0.996537,-0.067620,0.014789,-0.007354,-0.012458,3.867340,-33.833504,-28.751770,,,,,,,1
1514403826.891155,0.638652,1.486830,-2.345397,0.045492,-0.099121,-0.185428,0.049883,-0.996477,-0.067187,0.011243,-0.004454,0.009784,3.867340,-33.833504,-28.751770,,,,,,,1
1514403826.901165,0.657201,1.486041,-2.364635,0.031723,-0.054222,-0.174556,0.051601,-0.996410,-0.066873,0.000355,-0.004505,0.023996,3.908478,-33.809536,-28.548889,,,,,,,1
1514403826.911144,0.675041,1.485166,-2.382750,0.024400,-0.010244,-0.176512,0.053332,-0.996336,-0.066623,-0.004839,0.004622,0.028812,3.908478,-33.809536,-28.548889,,,,,,,1
1514403826.921123,0.692324,1.484187,-2.399908,0.015957,0.020852,-0.176388,0.055100,-0.996252,-0.066445,0.023651,0.025304,0.017220,3.964966,-33.784058,-28.654907,,,,,,,1
1514403826.931133,0.708588,1.483261,-2.416090,0.023362,0.007815,-0.164668,0.056775,-0.996171,-0.066243,0.056964,0.031663,-0.011806,3.964966,-33.784058,-28.654907,,,,,,,1
1514403826.941112,0.723217,1.482491,-2.431069,0.031666,-0.047091,-0.146716,0.058246,-0.996104,-0.065980,0.054639,0.014414,-0.034789,4.107574,-33.628563,-28.578247,,,,,,,1
1514403826.951091,0.736637,1.481913,-2.445332,0.046442,-0.086000,-0.125471,0.059513,-0.996052,-0.065619,0.026989,-0.003887,-0.032357,4.107574,-33.628563,-28.578247,,,,,,,1
1514403826.961101,0.748674,1.481694,-2.458406,0.069803,-0.109033,-0.092376,0.060447,-0.996033,-0.065058,-0.000449,-0.018524,-0.014700,4.066315,-33.777454,-28.397095,,,,,,,1
1514403826.971080,0.759564,1.481783,-2.470566,0.081462,-0.121179,-0.068879,0.061090,-0.996041,-0.064331,-0.007241,-0.017112,0.008163,4.066315,-33.777454,-28.397095,,,,,,,1
1514403826.981060,0.769470,1.481895,-2.481336,0.070917,-0.073065,-0.059056,0.061645,-0.996051,-0.063641,0.022095,0.000995,0.024533,4.246948,-33.735199,-28.397522,,,,,,,1
1514403826.991069,0.777600,1.482020,-2.489853,0.059279,-0.027193,-0.041757,0.062073,-0.996062,-0.063048,0.047836,0.011077,0.014434,4.246948,-33.735199,-28.397522,,,,,,,1
1514403827.001049,0.784930,1.482242,-2.497469,0.064573,-0.032743,-0.028938,0.062379,-0.996082,-0.062437,0.042938,0.017246,-0.008623,4.169342,-33.908142,-28.490906,,,,,,,1
1514403827.011028,0.791725,1.482661,-2.504596,0.079506,-0.026690,-0.005353,0.062505,-0.996119,-0.061719,0.039607,0.019587,-0.014804,4.169342,-33.908142,-28.490906,,,,,,,1
1514403827.021038,0.797695,1.483304,-2.510687,0.084876,-0.008732,0.011850,0.062415,-0.996175,-0.060899,0.023477,0.001455,0.003037,4.125366,-34.152412,-28.377808,,,,,,,1
1514403827.031017,0.803020,1.483947,-2.515917,0.076411,0.020134,0.018382,0.062279,-0.996231,-0.060122,0.005089,-0.005066,0.020739,4.125366,-34.152412,-28.377808,,,,,,,1
1514403827.040996,0.806335,1.484808,-2.518694,0.081798,0.058155,0.057067,0.061857,-0.996305,-0.059320,0.002367,-0.004473,0.018060,3.953430,-34.011902,-28.328674,,,,,,,1
1514403827.051006,0.808616,1.486184,-2.520422,0.115890,0.049960,0.098804,0.060997,-0.996422,-0.058229,0.003990,-0.014182,-0.006133,3.953430,-34.011902,-28.328674,,,,,,,1
1514403827.060985,0.809823,1.488008,-2.521444,0.134858,0.001150,0.138195,0.059749,-0.996575,-0.056899,0.014745,-0.017768,-0.028306,4.039734,-34.268284,-28.197083,,,,,,,1
1514403827.070964,0.806818,1.490141,-2.518850,0.130251,-0.057236,0.179640,0.058039,-0.996749,-0.055604,0.037924,-0.006287,-0.028853,4.039734,-34.268284,-28.197083,,,,,,,1
1514403827.080944,0.800816,1.492476,-2.513891,0.138473,-0.130423,0.202858,0.056027,-0.996935,-0.054326,0.066699,0.007280,-0.030742,3.893677,-34.213314,-28.147156,,,,,,,1
1514403827.090953,0.792949,1.495177,-2.507776,0.163819,-0.192049,0.237924,0.053674,-0.997142,-0.052869,0.075706,0.006770,-0.037982,3.893677,-34.213314,-28.147156,,,,,,,1
1514403827.100933,0.781253,1.498167,-2.498232,0.158251,-0.229905,0.266624,0.050945,-0.997364,-0.051369,0.045048,-0.004818,-0.022620,3.544647,-34.240547,-28.158081,,,,,,,1
1514403827.110912,0.766316,1.500808,-2.485474,0.113433,-0.216557,0.243074,0.048339,-0.997552,-0.050220,0.010499,0.008004,0.007755,3.544647,-34.240547,-28.158081,,,,,,,1
1514403827.120922,0.747954,1.503027,-2.468990,0.076109,-0.190586,0.234567,0.045898,-0.997705,-0.049471,-0.001632,0.025353,0.025454,3.364014,-34.258942,-27.967468,,,,,,,1
1514403827.130901,0.726606,1.505128,-2.449246,0.068730,-0.154233,0.242203,0.043433,-0.997845,-0.048865,-0.003073,0.021999,0.024924,3.364014,-34.258942,-27.967468,,,,,,,1
1514403827.140880,0.703788,1.507201,-2.427351,0.066832,-0.087844,0.244636,0.040962,-0.997979,-0.048260,0.021553,0.014778,0.022655,2.951080,-34.292336,-27.966980,,,,,,,1
1514403827.150890,0.679037,1.509442,-2.403534,0.083820,-0.108573,0.267035,0.038343,-0.998118,-0.047509,0.049258,0.008754,0.012643,2.951080,-34.292336,-27.966980,,,,,,,1
1514403827.160869,0.649576,1.511766,-2.375321,0.077236,-0.141954,0.281849,0.035519,-0.998258,-0.046764,0.048054,-0.006167,0.016201,2.940857,-34.295021,-27.936401,,,,,,,1
1514403827.170848,0.614165,1.513878,-2.341424,0.049307,-0.167669,0.290242,0.032620,-0.998381,-0.046260,0.031635,-0.007677,0.032252,2.940857,-34.295021,-27.936401,,,,,,,1
1514403827.180858,0.570559,1.515959,-2.299810,0.047941,-0.226950,0.317784,0.029445,-0.998497,-0.045881,0.005284,-0.007759,0.017256,2.434448,-34.320095,-27.948669,,,,,,,1
1514403827.190837,0.520644,1.518142,-2.252227,0.057448,-0.244365,0.335905,0.026028,-0.998614,-0.045391,0.001789,-0.006650,-0.009983,2.434448,-34.320095,-27.948669,,,,,,,1
1514403827.200817,0.466044,1.520109,-2.200113,0.041298,-0.277405,0.328242,0.022622,-0.998716,-0.044974,0.047492,0.026654,-0.020029,2.072266,-34.361382,-27.865295,,,,,,,1
1514403827.210806,0.405438,1.521492,-2.142962,-0.005055,-0.384104,0.310570,0.019308,-0.998785,-0.044985,0.110239,0.058965,-0.031233,2.072266,-34.361382,-27.865295,,,,,,,1
1514403827.220786,0.343349,1.522744,-2.085290,0.026683,-0.479562,0.310200,0.016056,-0.998846,-0.044910,0.140087,0.045873,-0.041088,1.920563,-34.327332,-27.789062,,,,,,,1
1514403827.230765,0.274088,1.524165,-2.021205,0.042425,-0.541070,0.338832,0.012523,-0.998913,-0.044538,0.074849,-0.013386,0.009748,1.920563,-34.327332,-27.789062,,,,,,,1
1514403827.240775,0.196327,1.524957,-1.948396,-0.020535,-0.493775,0.345350,0.008869,-0.998950,-0.044593,-0.048847,-0.052778,0.084769,1.303131,-34.426048,-27.836548,,,,,,,1
1514403827.250754,0.117958,1.524714,-1.874138,-0.095025,-0.402158,0.325306,0.005380,-0.998938,-0.045397,-0.141809,-0.043832,0.123568,1.303131,-34.426048,-27.836548,,,,,,,1
1514403827.260733,0.047109,1.524026,-1.806600,-0.087198,-0.329020,0.301046,0.002185,-0.998906,-0.046357,-0.139194,-0.000941,0.072998,0.755127,-34.389874,-27.892944,,,,,,,1
1514403827.270743,-0.026561,1.523629,-1.735905,-0.029465,-0.307313,0.342958,-0.001243,-0.998888,-0.046792,-0.024544,0.020220,-0.002967,0.755127,-34.389874,-27.892944,,,,,,,1
1514403827.280722,-0.107695,1.523114,-1.658143,-0.029820,-0.379510,0.374722,-0.005087,-0.998863,-0.047050,0.081121,-0.000801,-0.030038,0.358429,-34.304092,-27.842590,,,,,,,1
1514403827.290701,-0.187295,1.522173,-1.582901,-0.042950,-0.460840,0.372197,-0.008988,-0.998818,-0.047427,0.096070,0.005593,-0.029706,0.358429,-34.304092,-27.842590,,,,,,,1
1514403827.300711,-0.265053,1.520949,-1.508975,-0.034063,-0.362518,0.386557,-0.012967,-0.998758,-0.047772,0.026486,0.010782,-0.019977,0.043243,-34.275082,-27.806946,,,,,,,1
1514403827.310690,-0.342475,1.519449,-1.433529,-0.030164,-0.155115,0.416369,-0.017130,-0.998682,-0.048046,-0.030646,0.019358,-0.014240,0.043243,-34.275082,-27.806946,,,,,,,1
1514403827.320670,-0.415807,1.517669,-1.360207,-0.019865,0.023739,0.416117,-0.021325,-0.998589,-0.048295,-0.017066,0.042397,-0.034576,-0.212341,-34.189301,-27.826111,,,,,,,1
1514403827.330679,-0.485182,1.516081,-1.290176,0.027350,0.050510,0.402416,-0.025364,-0.998503,-0.048110,0.028126,0.045699,-0.048630,-0.212341,-34.189301,-27.826111,,,,,,,1
1514403827.340659,-0.551172,1.514161,-1.224169,-0.000831,-0.037398,0.415878,-0.029492,-0.998397,-0.047976,0.030011,0.010482,-0.005994,-0.278503,-34.159588,-27.727966,,,,,,,1
1514403827.350638,-0.610542,1.511336,-1.165443,-0.063094,-0.073991,0.446624,-0.033912,-0.998233,-0.048465,0.002159,-0.018033,0.041385,-0.278503,-34.159588,-27.727966,,,,,,,1
1514403827.360648,-0.668354,1.508410,-1.107860,-0.001970,-0.025149,0.460854,-0.038474,-0.998055,-0.048727,-0.022546,-0.028587,0.031515,-0.712646,-33.967293,-27.664124,,,,,,,1
1514403827.370627,-0.735478,1.505791,-1.040813,0.093122,-0.017673,0.514534,-0.043418,-0.997888,-0.047984,-0.004587,-0.009864,-0.030293,-0.712646,-33.967293,-27.664124,,,,,,,1
1514403827.380606,-0.805579,1.502684,-0.970103,0.101858,0.066235,0.565195,-0.048916,-0.997681,-0.046981,0.046276,0.024064,-0.059602,-0.969513,-34.098289,-27.606201,,,,,,,1
1514403827.390616,-0.870438,1.499131,-0.903963,0.108465,0.123956,0.572951,-0.054578,-0.997433,-0.046004,0.076032,0.030438,-0.036195,-0.969513,-34.098289,-27.606201,,,,,,,1
1514403827.400595,-0.931020,1.495558,-0.841309,0.150561,0.217107,0.563815,-0.060131,-0.997171,-0.044749,0.046962,0.015008,-0.034795,-1.181183,-34.109875,-27.448059,,,,,,,1
1514403827.410574,-0.992244,1.492077,-0.776219,0.237991,0.436091,0.583132,-0.065668,-0.996903,-0.042888,-0.003408,0.005570,-0.005345,-1.181183,-34.109875,-27.448059,,,,,,,1
1514403827.420584,-1.055990,1.488454,-0.705379,0.308608,0.745009,0.611377,-0.071418,-0.996612,-0.040400,-0.055901,0.000533,0.020137,-1.090576,-34.217918,-27.352173,,,,,,,1
1514403827.430563,-1.113061,1.484596,-0.641345,0.278229,0.614770,0.587210,-0.077063,-0.996287,-0.037964,-0.084299,0.035792,-0.068863,-1.090576,-34.217918,-27.352173,,,,,,,1
1514403827.440543,-1.158308,1.480608,-0.592051,0.209892,0.324411,0.532312,-0.082349,-0.995936,-0.036035,-0.043658,0.036799,-0.135458,-1.289322,-34.388618,-27.207581,,,,,,,1
1514403827.450552,-1.193754,1.476670,-0.553456,0.161794,0.307999,0.492579,-0.087227,-0.995573,-0.034541,0.039315,0.009093,-0.015355,-1.289322,-34.388618,-27.207581,,,,,,,1
1514403827.460532,-1.217297,1.472795,-0.526339,0.090406,0.348607,0.441294,-0.091640,-0.995202,-0.033815,0.029155,0.003533,0.130968,-1.481277,-34.425926,-27.111694,,,,,,,1
1514403827.470511,-1.231255,1.469546,-0.508640,0.045829,0.373659,0.343995,-0.095156,-0.994879,-0.033611,-0.072447,-0.013651,0.162853,-1.481277,-34.425926,-27.111694,,,,,,,1
1514403827.480521,-1.237736,1.466769,-0.498432,-0.005471,0.347819,0.289239,-0.097986,-0.994594,-0.033898,-0.158346,-0.016850,0.136651,-1.320572,-34.443611,-27.104309,,,,,,,1
1514403827.490500,-1.241682,1.464025,-0.492101,-0.031745,0.185171,0.284187,-0.100707,-0.994305,-0.034395,-0.163255,-0.000018,0.075151,-1.320572,-34.443611,-27.104309,,,,,,,1
1514403827.500479,-1.244704,1.460946,-0.489363,-0.087466,-0.107373,0.308452,-0.103714,-0.993972,-0.035072,-0.044281,0.014053,-0.004402,-1.499725,-34.415062,-27.156799,,,,,,,1
1514403827.510489,-1.246319,1.457657,-0.490161,-0.116934,-0.268930,0.302331,-0.106874,-0.993607,-0.035949,0.095155,-0.005203,0.034377,-1.499725,-34.415062,-27.156799,,,,,,,1
1514403827.520468,-1.245599,1.454747,-0.493566,-0.131730,-0.260625,0.246723,-0.109591,-0.993274,-0.036950,0.106737,-0.025739,0.064203,-1.698578,-34.275276,-27.297424,,,,,,,1
1514403827.530448,-1.241775,1.452399,-0.499443,-0.144123,-0.183750,0.189287,-0.111656,-0.992999,-0.038123,-0.018455,0.006732,0.032264,-1.698578,-34.275276,-27.297424,,,,,,,1
1514403827.540457,-1.237275,1.450368,-0.505394,-0.129971,-0.134232,0.167072,-0.113390,-0.992757,-0.039286,-0.135755,0.048345,-0.021795,-1.913788,-34.157310,-27.322876,,,,,,,1
1514403827.550437,-1.234211,1.448351,-0.509681,-0.117119,-0.122610,0.175702,-0.115162,-0.992513,-0.040295,-0.109539,0.045812,-0.044544,-1.913788,-34.157310,-27.322876,,,,,,,1
1514403827.560416,-1.231298,1.446245,-0.513932,-0.124652,-0.132263,0.178855,-0.117018,-0.992254,-0.041327,0.014433,0.014089,-0.007668,-2.215042,-34.079720,-27.377563,,,,,,,1
1514403827.570426,-1.229263,1.444137,-0.517026,-0.100993,-0.096013,0.184407,-0.118905,-0.991989,-0.042267,0.078653,-0.003143,0.030853,-2.215042,-34.079720,-27.377563,,,,,,,1
1514403827.580405,-1.228177,1.442137,-0.519016,-0.090256,-0.091656,0.175888,-0.120729,-0.991735,-0.043063,0.043459,-0.015467,0.030672,-2.408356,-34.096859,-27.519836,,,,,,,1
1514403827.590384,-1.227426,1.440307,-0.520540,-0.077305,-0.068012,0.166390,-0.122407,-0.991498,-0.043765,-0.010482,-0.017413,0.018298,-2.408356,-34.096859,-27.519836,,,,,,,1
1514403827.600363,-1.227542,1.438624,-0.520767,-0.054687,-0.032654,0.159101,-0.123985,-0.991278,-0.044312,-0.045052,0.009237,-0.025817,-2.561920,-33.907291,-27.498962,,,,,,,1
1514403827.610373,-1.232363,1.437068,-0.515355,0.036697,0.100611,0.179111,-0.125652,-0.991072,-0.044226,-0.031376,0.021788,-0.078942,-2.561920,-33.907291,-27.498962,,,,,,,1
1514403827.620352,-1.236501,1.435360,-0.509309,0.009126,0.169216,0.183647,-0.127435,-0.990842,-0.044262,0.021432,0.015379,-0.059223,-2.535538,-33.853645,-27.381897,,,,,,,1
1514403827.630332,-1.242392,1.433681,-0.502186,0.051744,0.130342,0.194244,-0.129268,-0.990614,-0.044047,0.018535,0.022871,-0.070409,-2.535538,-33.853645,-27.381897,,,,,,,1
1514403827.640341,-1.249487,1.431745,-0.492495,0.061785,0.271131,0.236605,-0.131399,-0.990348,-0.043735,0.022771,0.001380,-0.062252,-2.441772,-34.032768,-27.519775,,,,,,,1
1514403827.650321,-1.256795,1.429574,-0.482580,0.066942,0.233378,0.254629,-0.133762,-0.990045,-0.043439,0.058246,-0.005973,-0.019031,-2.441772,-34.032768,-27.519775,,,,,,,1
1514403827.660300,-1.264552,1.427242,-0.473011,0.048365,0.141104,0.271297,-0.136296,-0.989714,-0.043095,0.056721,0.005369,-0.033122,-2.525421,-33.848740,-27.283936,,,,,,,1
1514403827.670310,-1.272086,1.424598,-0.465048,0.025297,-0.004749,0.290926,-0.139120,-0.989332,-0.042838,0.031576,-0.015597,0.024253,-2.525421,-33.848740,-27.283936,,,,,,,1
1514403827.680289,-1.279923,1.421818,-0.458101,0.013047,-0.130096,0.295693,-0.142088,-0.988923,-0.042536,0.013121,-0.045318,0.014216,-2.624527,-33.834023,-27.333679,,,,,,,1
1514403827.690268,-1.286983,1.418925,-0.453091,-0.018402,-0.243561,0.298340,-0.145133,-0.988490,-0.042333,0.023703,-0.027959,-0.026743,-2.624527,-33.834023,-27.333679,,,,,,,1
1514403827.700278,-1.292529,1.416142,-0.450776,-0.044419,-0.354496,0.271058,-0.148012,-0.988065,-0.042284,0.017183,0.003430,-0.072844,-2.969086,-33.711617,-27.244080,,,,,,,1
1514403827.710257,-1.297862,1.413566,-0.449021,-0.044397,-0.359634,0.254991,-0.150688,-0.987665,-0.042180,-0.004220,0.010019,-0.092723,-2.969086,-33.711617,-27.244080,,,,,,,1
1514403827.720236,-1.301868,1.411128,-0.448480,-0.060347,-0.349628,0.232547,-0.153178,-0.987280,-0.042216,-0.020330,-0.002939,-0.056981,-3.242508,-33.633480,-27.312683,,,,,,,1
1514403827.730246,-1.304827,1.408872,-0.449199,-0.075348,-0.368602,0.214252,-0.155452,-0.986919,-0.042349,-0.017476,-0.002430,-0.018885,-3.242508,-33.633480,-27.312683,,,,,,,1
1514403827.740225,-1.306431,1.406450,-0.451010,-0.093456,-0.331342,0.236848,-0.157827,-0.986525,-0.042724,-0.010218,0.003402,0.028961,-3.747070,-33.628876,-27.302246,,,,,,,1
1514403827.750205,-1.308825,1.403675,-0.451514,-0.075179,-0.275200,0.278845,-0.160574,-0.986068,-0.043055,0.025580,-0.004457,0.055201,-3.747070,-33.628876,-27.302246,,,,,,,1
1514403827.760214,-1.311890,1.400581,-0.450721,-0.067591,-0.226375,0.310094,-0.163655,-0.985548,-0.043344,0.063664,0.011015,0.023965,-3.986542,-33.644638,-27.217041,,,,,,,1
1514403827.770194,-1.316479,1.397118,-0.448900,-0.056262,-0.307448,0.361093,-0.167156,-0.984956,-0.043451,0.068157,0.014512,-0.030462,-3.986542,-33.644638,-27.217041,,,,,,,1
1514403827.780173,-1.322994,1.393104,-0.446328,-0.053661,-0.433473,0.411875,-0.171268,-0.984254,-0.043331,0.076023,-0.020430,-0.059559,-4.519791,-33.601700,-27.308472,,,,,,,1
1514403827.790183,-1.330611,1.389021,-0.443566,-0.045342,-0.505145,0.401943,-0.175497,-0.983524,-0.042981,0.096746,0.008533,-0.003649,-4.519791,-33.601700,-27.308472,,,,,,,1
1514403827.800162,-1.338778,1.385322,-0.440493,-0.028170,-0.517563,0.364482,-0.179382,-0.982849,-0.042383,0.028992,0.042694,0.039804,-4.938461,-33.339085,-27.328369,,,,,,,1
1514403827.810141,-1.346073,1.382063,-0.437929,-0.025711,-0.467640,0.315508,-0.182810,-0.982243,-0.041787,-0.083395,0.019627,0.017312,-4.938461,-33.339085,-27.328369,,,,,,,1
1514403827.820151,-1.352347,1.379367,-0.436261,-0.030929,-0.476439,0.254493,-0.185653,-0.981733,-0.041213,-0.121308,-0.010530,-0.010193,-5.332199,-33.372738,-27.322449,,,,,,,1
1514403827.830130,-1.358229,1.377216,-0.435393,-0.031994,-0.512179,0.204061,-0.187957,-0.981322,-0.040566,-0.081086,0.008513,-0.004310,-5.332199,-33.372738,-27.322449,,,,,,,1
1514403827.840109,-1.364251,1.375459,-0.434807,-0.025673,-0.563158,0.169617,-0.189885,-0.980982,-0.039787,-0.040599,0.034022,0.029274,-5.738708,-33.269791,-27.159546,,,,,,,1
1514403827.850119,-1.370468,1.373997,-0.434238,-0.014892,-0.560667,0.140767,-0.191535,-0.980698,-0.038891,-0.043435,0.022125,0.052502,-5.738708,-33.269791,-27.159546,,,,,,,1
1514403827.860098,-1.376360,1.372777,-0.433745,-0.014786,-0.547526,0.119434,-0.192936,-0.980458,-0.037994,-0.042690,-0.017467,0.057937,-6.178391,-33.163136,-27.282776,,,,,,,1
1514403827.870078,-1.382127,1.371723,-0.433515,-0.016910,-0.552684,0.105503,-0.194167,-0.980250,-0.037074,-0.017579,-0.050573,0.051341,-6.178391,-33.163136,-27.282776,,,,,,,1
1514403827.880087,-1.387973,1.370784,-0.432936,-0.002857,-0.523632,0.091752,-0.195287,-0.980064,-0.036106,0.009466,-0.033074,0.059620,-6.595764,-33.294041,-27.117188,,,,,,,1
1514403827.890067,-1.394285,1.370048,-0.431511,0.020911,-0.480588,0.069526,-0.196221,-0.979918,-0.034999,-0.012184,0.013106,0.076000,-6.595764,-33.294041,-27.117188,,,,,,,1
1514403827.900046,-1.400854,1.369659,-0.428910,0.051347,-0.375292,0.036893,-0.196822,-0.979840,-0.033774,-0.062379,0.029095,0.067878,-6.713928,-33.075077,-27.086426,,,,,,,1
1514403827.910056,-1.406717,1.369529,-0.425721,0.062560,-0.249749,0.018221,-0.197142,-0.979814,-0.032640,-0.076875,0.049959,0.042345,-6.713928,-33.075077,-27.086426,,,,,,,1
1514403827.920035,-1.411670,1.369496,-0.422508,0.055437,-0.159601,0.007915,-0.197332,-0.979807,-0.031668,-0.061960,0.069636,-0.006479,-7.091034,-33.257973,-27.085083,,,,,,,1
1514403827.930014,-1.415323,1.369690,-0.420022,0.055635,-0.123906,-0.017596,-0.197258,-0.979846,-0.030918,-0.027733,0.062930,0.003071,-7.091034,-33.257973,-27.085083,,,,,,,1
1514403827.940024,-1.419741,1.370056,-0.416420,0.070857,-0.065981,-0.028006,-0.197037,-0.979919,-0.029992,-0.025970,0.042312,0.011727,-7.090378,-33.234650,-26.908447,,,,,,,1
1514403827.950003,-1.420837,1.370689,-0.414819,0.028716,0.071951,-0.076665,-0.196456,-0.980045,-0.029683,-0.042664,0.032230,0.034429,-7.090378,-33.234650,-26.908447,,,,,,,1
1514403827.959982,-1.420092,1.372166,-0.414718,0.019372,0.081795,-0.168623,-0.195003,-0.980338,-0.029612,-0.087178,0.033713,0.068156,-6.975769,-33.224224,-27.039917,,,,,,,1
1514403827.969992,-1.417160,1.374395,-0.416215,-0.003663,0.165349,-0.241023,-0.192755,-0.980775,-0.029849,-0.141703,0.021089,0.088352,-6.975769,-33.224224,-27.039917,,,,,,,1
1514403827.979971,-1.412656,1.377014,-0.419037,-0.022829,0.162716,-0.278504,-0.190079,-0.981283,-0.030312,-0.126571,-0.004465,0.096749,-6.890228,-33.322906,-27.097351,,,,,,,1
1514403827.989951,-1.407154,1.379716,-0.423097,-0.036793,0.146718,-0.279670,-0.187292,-0.981800,-0.030925,-0.047999,-0.037899,0.016674,-6.890228,-33.322906,-27.097351,,,,,,,1
1514403827.999960,-1.402365,1.382049,-0.426771,-0.028536,0.102092,-0.229584,-0.184882,-0.982240,-0.031438,0.047614,-0.040007,0.003468,-6.622147,-33.368286,-26.934387,,,,,,,1
1514403828.009940,-1.398714,1.383768,-0.429914,-0.028943,0.038046,-0.166764,-0.183101,-0.982561,-0.031823,0.100048,-0.014891,-0.021689,-6.622147,-33.368286,-26.934387,,,,,,,1
1514403828.019919,-1.395842,1.384954,-0.432729,-0.033511,-0.003316,-0.116686,-0.181860,-0.982781,-0.032146,0.103277,0.012795,-0.045460,-6.463165,-33.394283,-27.074646,,,,,,,1
1514403828.029929,-1.393893,1.385718,-0.435189,-0.031699,-0.060688,-0.073086,-0.181058,-0.982922,-0.032368,0.071378,0.024594,-0.047954,-6.463165,-33.394283,-27.074646,,,,,,,1
1514403828.039908,-1.392707,1.386078,-0.437182,-0.034034,-0.086875,-0.036841,-0.180671,-0.982988,-0.032520,0.041008,0.022829,-0.042370,-6.657135,-33.336040,-27.085205,,,,,,,1
1514403828.049887,-1.391740,1.386228,-0.439103,-0.033029,-0.091375,-0.020815,-0.180495,-0.983015,-0.032669,0.032760,0.015975,-0.027832,-6.657135,-33.336040,-27.085205,,,,,,,1
1514403828.059897,-1.390426,1.386233,-0.441060,-0.040411,-0.051915,-0.005678,-0.180448,-0.983016,-0.032905,0.019025,0.014633,-0.023400,-6.741455,-33.461655,-27.041260,,,,,,,1
1514403828.069876,-1.387661,1.386198,-0.443905,-0.054077,0.007118,-0.010785,-0.180390,-0.983010,-0.033410,0.008698,0.003213,0.008676,-6.741455,-33.461655,-27.041260,,,,,,,1
1514403828.079855,-1.384685,1.386335,-0.446944,-0.056240,-0.009810,-0.025839,-0.180159,-0.983035,-0.033922,-0.001314,-0.009473,0.053774,-6.419724,-33.294140,-27.189819,,,,,,,1
1514403828.089865,-1.381174,1.386675,-0.450477,-0.057166,0.013008,-0.049270,-0.179710,-0.983097,-0.034491,-0.032280,-0.005108,0.076361,-6.419724,-33.294140,-27.189819,,,,,,,1
1514403828.099844,-1.377252,1.387235,-0.454071,-0.053817,0.035762,-0.069485,-0.179033,-0.983200,-0.035090,-0.047209,0.001205,0.053034,-6.324997,-33.226570,-27.255127,,,,,,,1
1514403828.109824,-1.373136,1.387990,-0.457904,-0.052696,0.033903,-0.090883,-0.178159,-0.983337,-0.035681,-0.040194,-0.004364,0.025412,-6.324997,-33.226570,-27.255127,,,,,,,1
1514403828.119803,-1.369006,1.388843,-0.461703,-0.052668,0.036146,-0.098360,-0.177187,-0.983492,-0.036248,-0.026731,0.006594,0.009972,-6.248199,-33.159916,-27.191040,,,,,,,1
1514403828.129813,-1.364947,1.389717,-0.465425,-0.044098,0.038234,-0.097266,-0.176196,-0.983650,-0.036791,-0.017636,0.008674,-0.011579,-6.248199,-33.159916,-27.191040,,,,,,,1
1514403828.139792,-1.361493,1.390528,-0.468494,-0.035584,0.034828,-0.085500,-0.175287,-0.983796,-0.037233,0.000177,-0.001510,-0.037916,-6.080643,-33.154137,-27.094055,,,,,,,1
1514403828.149771,-1.358954,1.391126,-0.470856,-0.028226,0.019496,-0.062026,-0.174617,-0.983903,-0.037555,0.026607,0.002274,-0.044858,-6.080643,-33.154137,-27.094055,,,,,,,1
1514403828.159781,-1.357089,1.391528,-0.472692,-0.026254,-0.010778,-0.041835,-0.174160,-0.983974,-0.037796,0.045177,0.013515,-0.040161,-6.335358,-33.185120,-27.101318,,,,,,,1
1514403828.169760,-1.355816,1.391739,-0.474482,-0.028613,-0.058148,-0.023868,-0.173909,-0.984012,-0.037974,0.038090,0.013599,-0.029989,-6.335358,-33.185120,-27.101318,,,,,,,1
1514403828.179740,-1.354808,1.391836,-0.475936,-0.025368,-0.042209,-0.015234,-0.173777,-0.984029,-0.038129,0.017924,0.013891,-0.009601,-6.340836,-33.133892,-27.116760,,,,,,,1
1514403828.189749,-1.353703,1.391978,-0.477207,-0.019861,-0.004654,-0.021474,-0.173600,-0.984055,-0.038291,-0.005248,0.014282,0.011832,-6.340836,-33.133892,-27.116760,,,,,,,1
1514403828.199729,-1.352485,1.392147,-0.478138,-0.011155,0.033885,-0.022356,-0.173391,-0.984085,-0.038466,-0.022151,0.021255,0.008269,-6.395584,-33.183235,-27.294617,,,,,,,1
1514403828.209701,-1.351471,1.392378,-0.478873,-0.005849,0.020016,-0.027757,-0.173130,-0.984126,-0.038593,-0.006283,-0.013830,0.002353,-6.395584,-33.183235,-27.294617,,,,,,,1
1514403828.219711,-1.350733,1.392709,-0.479611,-0.005926,-0.007703,-0.037507,-0.172783,-0.984184,-0.038649,0.003960,-0.035088,0.006545,-6.284714,-33.202171,-27.270935,,,,,,,1
1514403828.229690,-1.349286,1.393146,-0.481108,-0.017639,-0.004261,-0.051417,-0.172308,-0.984262,-0.038805,-0.012079,0.020257,0.001543,-6.284714,-33.202171,-27.270935,,,,,,,1
1514403828.239669,-1.348089,1.393726,-0.482490,-0.009129,-0.026616,-0.064337,-0.171704,-0.984364,-0.038885,-0.030765,0.044743,0.004293,-6.352829,-33.173286,-27.345398,,,,,,,1
1514403828.249679,-1.346342,1.394448,-0.484221,-0.013224,0.011122,-0.081289,-0.170943,-0.984491,-0.039026,-0.034364,0.033823,0.002939,-6.352829,-33.173286,-27.345398,,,,,,,1
1514403828.259658,-1.344552,1.395328,-0.485952,-0.010003,0.002756,-0.097365,-0.170028,-0.984645,-0.039138,-0.027909,0.016978,0.006698,-6.128250,-33.216026,-27.313782,,,,,,,1
1514403828.269637,-1.342877,1.396274,-0.487490,-0.003515,0.019881,-0.098346,-0.169053,-0.984810,-0.039212,-0.025633,0.006569,0.001492,-6.128250,-33.216026,-27.313782,,,,,,,1
1514403828.279647,-1.341525,1.397201,-0.488747,-0.001456,0.000549,-0.095220,-0.168112,-0.984970,-0.039233,-0.004664,0.002152,0.002139,-6.171448,-33.342274,-27.312195,,,,,,,1
1514403828.289626,-1.340350,1.398085,-0.489999,0.000645,-0.005958,-0.089898,-0.167217,-0.985123,-0.039232,0.008358,0.004516,-0.005187,-6.171448,-33.342274,-27.312195,,,,,,,1
1514403828.299606,-1.339589,1.398867,-0.490705,0.007064,0.005583,-0.073791,-0.166437,-0.985256,-0.039182,0.008494,0.017025,-0.000552,-6.059662,-33.344753,-27.273743,,,,,,,1
1514403828.309615,-1.338727,1.399501,-0.491279,0.003945,0.038644,-0.061883,-0.165795,-0.985365,-0.039182,0.007867,0.035200,-0.008075,-6.059662,-33.344753,-27.273743,,,,,,,1
1514403828.319595,-1.337456,1.400044,-0.492092,-0.003559,0.037545,-0.057623,-0.165225,-0.985457,-0.039269,0.014163,0.029113,-0.013618,-6.143295,-33.275639,-27.415649,,,,,,,1
1514403828.329574,-1.336002,1.400571,-0.493340,-0.010052,0.020441,-0.057712,-0.164663,-0.985547,-0.039388,0.008443,-0.009082,-0.001871,-6.143295,-33.275639,-27.415649,,,,,,,1
1514403828.339584,-1.333872,1.401126,-0.495192,-0.021776,0.025959,-0.066265,-0.164047,-0.985640,-0.039611,-0.003311,0.010573,0.024321,-5.965576,-33.461639,-27.268066,,,,,,,1
1514403828.349563,-1.330648,1.401865,-0.498100,-0.031265,0.043459,-0.090803,-0.163211,-0.985765,-0.039966,-0.028531,0.037477,0.045978,-5.965576,-33.461639,-27.268066,,,,,,,1
1514403828.359542,-1.326319,1.402841,-0.501648,-0.037446,0.088817,-0.116281,-0.162102,-0.985929,-0.040439,-0.057198,0.017896,0.052188,-5.829315,-33.223045,-27.369263,,,,,,,1
1514403828.369552,-1.320762,1.403981,-0.506401,-0.053471,0.082668,-0.132381,-0.160786,-0.986118,-0.041061,-0.048245,-0.000515,0.033325,-5.829315,-33.223045,-27.369263,,,,,,,1
1514403828.379531,-1.314479,1.405170,-0.512107,-0.064254,0.053906,-0.141085,-0.159389,-0.986315,-0.041773,-0.019002,-0.006299,0.009546,-5.511429,-33.333099,-27.363342,,,,,,,1
1514403828.389510,-1.308102,1.406336,-0.518219,-0.068631,0.029242,-0.137994,-0.158007,-0.986507,-0.042489,0.004290,-0.018361,0.015268,-5.511429,-33.333099,-27.363342,,,,,,,1
1514403828.399520,-1.301521,1.407465,-0.524609,-0.071873,0.022784,-0.134820,-0.156650,-0.986691,-0.043232,0.009692,-0.013996,0.021274,-5.547165,-33.288605,-27.347046,,,,,,,1
1514403828.409499,-1.294795,1.408489,-0.530965,-0.071787,0.055836,-0.122907,-0.155382,-0.986857,-0.044009,0.001100,0.009593,0.014498,-5.547165,-33.288605,-27.347046,,,,,,,1
1514403828.419479,-1.288238,1.409344,-0.536758,-0.067457,0.082352,-0.104598,-0.154279,-0.986995,-0.044791,0.004438,0.018458,0.002555,-5.650391,-33.177666,-27.536194,,,,,,,1
1514403828.429488,-1.282584,1.410063,-0.541816,-0.056888,0.057485,-0.090785,-0.153341,-0.987110,-0.045460,0.022374,-0.004726,-0.002406,-5.650391,-33.177666,-27.536194,,,,,,,1
1514403828.439468,-1.278216,1.410673,-0.545736,-0.040925,0.046494,-0.074762,-0.152563,-0.987208,-0.045956,0.026633,-0.012625,-0.003071,-5.283524,-33.404591,-27.592468,,,,,,,1
1514403828.449447,-1.274557,1.411199,-0.548744,-0.029076,0.075205,-0.062847,-0.151898,-0.987291,-0.046362,0.011517,0.001864,-0.013666,-5.283524,-33.404591,-27.592468,,,,,,,1
1514403828.459457,-1.271960,1.411711,-0.550470,-0.007653,0.087873,-0.055266,-0.151294,-0.987373,-0.046608,0.004703,0.002616,-0.024315,-5.207535,-33.430679,-27.589294,,,,,,,1
1514403828.469436,-1.270401,1.412177,-0.550995,0.010579,0.109083,-0.044443,-0.150781,-0.987446,-0.046707,0.010354,0.004109,-0.022262,-5.207535,-33.430679,-27.589294,,,,,,,1
1514403828.479415,-1.270198,1.412642,-0.550003,0.031967,0.112110,-0.036905,-0.150332,-0.987520,-0.046602,0.009844,-0.006941,-0.020980,-5.101746,-33.424694,-27.543274,,,,,,,1
1514403828.489425,-1.270805,1.413042,-0.548273,0.038354,0.108753,-0.028352,-0.149981,-0.987583,-0.046393,0.007220,-0.010480,-0.030542,-5.101746,-33.424694,-27.543274,,,,,,,1
1514403828.499404,-1.271710,1.413413,-0.546431,0.037149,0.073396,-0.027442,-0.149672,-0.987641,-0.046149,0.015044,0.014054,-0.037042,-5.422653,-33.233883,-27.522217,,,,,,,1
1514403828.509383,-1.273042,1.413783,-0.544764,0.034813,0.023053,-0.026602,-0.149385,-0.987699,-0.045843,0.013994,0.030774,-0.034510,-5.422653,-33.233883,-27.522217,,,,,,,1
1514403828.519393,-1.274433,1.414224,-0.543138,0.036950,0.014619,-0.037332,-0.149032,-0.987768,-0.045508,-0.002778,0.019933,-0.013605,-5.387344,-33.287216,-27.482788,,,,,,,1
1514403828.529372,-1.275218,1.414817,-0.542244,0.028415,0.006358,-0.057706,-0.148509,-0.987860,-0.045221,-0.021291,0.007712,0.003442,-5.387344,-33.287216,-27.482788,,,,,,,1
1514403828.539352,-1.274906,1.415576,-0.542690,0.010166,-0.026473,-0.080347,-0.147777,-0.987977,-0.045048,-0.030217,0.007463,0.016804,-5.330597,-33.398712,-27.450012,,,,,,,1
1514403828.549361,-1.273757,1.416546,-0.544414,0.001541,-0.064660,-0.106202,-0.146808,-0.988127,-0.044937,-0.033414,0.000700,0.034897,-5.330597,-33.398712,-27.450012,,,,,,,1
1514403828.559341,-1.271898,1.417649,-0.546877,-0.003760,-0.061253,-0.119031,-0.145681,-0.988296,-0.044889,-0.037470,-0.003602,0.028348,-5.187683,-33.392235,-27.324890,,,,,,,1
1514403828.569320,-1.269536,1.418809,-0.549708,-0.005816,-0.038666,-0.124284,-0.144479,-0.988472,-0.044892,-0.031242,0.002342,0.019669,-5.187683,-33.392235,-27.324890,,,,,,,1
1514403828.579330,-1.267134,1.419925,-0.552301,-0.002541,-0.014172,-0.114542,-0.143315,-0.988640,-0.044908,-0.012462,0.001473,0.009905,-5.299225,-33.338245,-27.436646,,,,,,,1
1514403828.589309,-1.265125,1.420855,-0.554285,0.002853,0.011202,-0.091956,-0.142347,-0.988780,-0.044919,0.013013,0.001384,-0.002642,-5.299225,-33.338245,-27.436646,,,,,,,1
1514403828.599288,-1.264091,1.421566,-0.555046,0.012468,0.026871,-0.065130,-0.141629,-0.988886,-0.044854,0.034208,-0.000280,-0.012168,-5.109207,-33.371391,-27.530579,,,,,,,1
1514403828.609267,-1.264196,1.422012,-0.554585,0.023118,0.037124,-0.034047,-0.141213,-0.988952,-0.044706,0.044015,-0.007661,-0.023898,-5.109207,-33.371391,-27.530579,,,,,,,1
1514403828.619277,-1.265549,1.422148,-0.552734,0.030534,0.043047,0.001289,-0.141145,-0.988972,-0.044474,0.047426,-0.006023,-0.032384,-5.261978,-33.367149,-27.376892,,,,,,,1
1514403828.629256,-1.268163,1.422052,-0.549813,0.038948,0.022314,0.026882,-0.141353,-0.988958,-0.044134,0.047618,0.004430,-0.036967,-5.261978,-33.367149,-27.376892,,,,,,,1
1514403828.639236,-1.271525,1.421746,-0.546399,0.037695,-0.012230,0.047047,-0.141790,-0.988913,-0.043747,0.040532,0.007406,-0.009658,-5.182205,-33.489048,-27.365662,,,,,,,1
1514403828.649245,-1.274828,1.421408,-0.543271,0.034465,-0.021804,0.042721,-0.142253,-0.988862,-0.043376,0.011699,0.002702,0.016475,-5.182205,-33.489048,-27.365662,,,,,,,1
1514403828.659225,-1.277507,1.421141,-0.540495,0.032460,0.010411,0.037513,-0.142621,-0.988822,-0.043072,-0.018542,-0.001839,0.022594,-5.213943,-33.330841,-27.278992,,,,,,,1
1514403828.669204,-1.279939,1.420924,-0.537681,0.033663,0.042646,0.030172,-0.142931,-0.988790,-0.042786,-0.025968,0.003790,0.025498,-5.213943,-33.330841,-27.278992,,,,,,,1
1514403828.679214,-1.281912,1.420777,-0.535117,0.030505,0.052371,0.024862,-0.143155,-0.988768,-0.042545,-0.013949,0.003966,0.021809,-5.055328,-33.562614,-27.274292,,,,,,,1
1514403828.689193,-1.283614,1.420640,-0.532849,0.028383,0.056663,0.024877,-0.143358,-0.988748,-0.042340,-0.007186,0.006524,0.011166,-5.055328,-33.562614,-27.274292,,,,,,,1
1514403828.699172,-1.284815,1.420499,-0.530871,0.024173,0.073846,0.022808,-0.143542,-0.988727,-0.042207,-0.006146,0.022799,0.007173,-5.180862,-33.627396,-27.419800,,,,,,,1
1514403828.709182,-1.285644,1.420348,-0.529154,0.023165,0.090991,0.022882,-0.143722,-0.988704,-0.042131,-0.007890,0.017711,0.008317,-5.180862,-33.627396,-27.419800,,,,,,,1
1514403828.719161,-1.286630,1.420196,-0.527030,0.027511,0.110225,0.025115,-0.143907,-0.988681,-0.042031,-0.009490,0.004444,0.002709,-4.953461,-33.563042,-27.354614,,,,,,,1
1514403828.729140,-1.288087,1.419965,-0.524385,0.032861,0.117555,0.035853,-0.144187,-0.988647,-0.041885,0.000388,0.001479,-0.007386,-4.953461,-33.563042,-27.354614,,,,,,,1
1514403828.739150,-1.290412,1.419660,-0.520829,0.042451,0.114174,0.045481,-0.144574,-0.988601,-0.041633,0.015530,0.006560,-0.017342,-5.003494,-33.558319,-27.226624,,,,,,,1
1514403828.749129,-1.292543,1.419287,-0.517666,0.032739,0.093834,0.047512,-0.145015,-0.988544,-0.041426,0.024623,0.002491,-0.007921,-5.003494,-33.558319,-27.226624,,,,,,,1
1514403828.759109,-1.294193,1.418963,-0.514999,0.028508,0.101450,0.040052,-0.145391,-0.988495,-0.041274,0.003896,-0.002609,0.014754,-4.969894,-33.611046,-27.416077,,,,,,,1
1514403828.769118,-1.295218,1.418716,-0.512622,0.027613,0.142256,0.032746,-0.145667,-0.988458,-0.041191,-0.025872,0.001077,0.022697,-4.969894,-33.611046,-27.416077,,,,,,,1
1514403828.779098,-1.295849,1.418503,-0.510417,0.024442,0.148767,0.027421,-0.145894,-0.988426,-0.041156,-0.030253,0.004524,0.015322,-5.128113,-33.646423,-27.431519,,,,,,,1
1514403828.789077,-1.296238,1.418339,-0.508574,0.023369,0.143486,0.022048,-0.146066,-0.988401,-0.041143,-0.011695,0.006849,-0.000422,-5.128113,-33.646423,-27.431519,,,,,,,1
1514403828.799087,-1.296928,1.418174,-0.506430,0.025472,0.135936,0.025227,-0.146251,-0.988376,-0.041086,0.000530,0.008670,-0.001929,-5.164352,-33.649227,-27.509460,,,,,,,1
1514403828.809066,-1.297562,1.417963,-0.504357,0.024424,0.145525,0.029546,-0.146478,-0.988344,-0.041050,-0.000632,0.010515,0.000293,-5.164352,-33.649227,-27.509460,,,,,,,1
1514403828.819045,-1.297484,1.417688,-0.502865,0.010524,0.149822,0.032749,-0.146735,-0.988302,-0.041134,0.001044,0.013692,0.010311,-4.814514,-33.778725,-27.471191,,,,,,,1
1514403828.829055,-1.296787,1.417450,-0.502093,0.004105,0.142460,0.024149,-0.146932,-0.988266,-0.041300,0.000463,0.011413,0.013864,-4.814514,-33.778725,-27.471191,,,,,,,1
1514403828.839034,-1.296284,1.417227,-0.501323,0.004001,0.114611,0.024024,-0.147123,-0.988231,-0.041433,-0.002139,-0.003621,0.008840,-4.686646,-33.788895,-27.452942,,,,,,,1
1514403828.849014,-1.296024,1.417045,-0.500671,0.004962,0.080433,0.016386,-0.147287,-0.988204,-0.041521,-0.002616,-0.004747,0.003587,-4.686646,-33.788895,-27.452942,,,,,,,1
1514403828.859023,-1.295884,1.416973,-0.500079,0.004935,0.065581,0.005624,-0.147350,-0.988192,-0.041561,-0.006932,0.004641,-0.001362,-4.683105,-33.629169,-27.258606,,,,,,,1
1514403828.869003,-1.295839,1.416987,-0.499480,0.011374,0.065657,-0.001852,-0.147335,-0.988195,-0.041564,-0.015110,0.007772,-0.004396,-4.683105,-33.629169,-27.258606,,,,,,,1
1514403828.878982,-1.296021,1.417090,-0.498517,0.015701,0.075337,-0.006079,-0.147245,-0.988210,-0.041509,-0.017382,0.009191,-0.009241,-4.598923,-33.654152,-27.327515,,,,,,,1
1514403828.888992,-1.295971,1.417201,-0.497912,0.011357,0.058251,-0.008303,-0.147137,-0.988227,-0.041487,-0.004566,0.010322,-0.010363,-4.598923,-33.654152,-27.327515,,,,,,,1
1514403828.898971,-1.295985,1.417309,-0.497375,0.009174,0.046477,-0.008360,-0.147035,-0.988244,-0.041456,0.004259,0.010567,0.001203,-4.699295,-33.786549,-27.334045,,,,,,,1
1514403828.908950,-1.295644,1.417420,-0.497181,0.002784,0.051901,-0.011556,-0.146916,-0.988261,-0.041476,-0.000988,0.010096,0.016147,-4.699295,-33.786549,-27.334045,,,,,,,1
1514403828.918960,-1.295157,1.417548,-0.497192,0.001678,0.041208,-0.012675,-0.146774,-0.988280,-0.041513,-0.009675,0.002700,0.016168,-4.707611,-33.536884,-27.317139,,,,,,,1
1514403828.928939,-1.294598,1.417687,-0.497402,0.001650,0.032652,-0.013783,-0.146619,-0.988302,-0.041558,-0.003940,0.002462,0.007699,-4.707611,-33.536884,-27.317139,,,,,,,1
1514403828.938918,-1.294219,1.417847,-0.497423,0.002725,0.031620,-0.016994,-0.146452,-0.988326,-0.041571,0.004469,0.001647,0.003820,-4.654999,-33.577763,-27.423584,,,,,,,1
1514403828.948928,-1.293718,1.418074,-0.497557,0.005975,0.035989,-0.024456,-0.146215,-0.988361,-0.041583,-0.003366,-0.000882,-0.003949,-4.654999,-33.577763,-27.423584,,,,,,,1
1514403828.958907,-1.293672,1.418311,-0.497195,0.012381,0.034849,-0.021241,-0.145987,-0.988397,-0.041525,-0.011636,0.004907,-0.005152,-4.772461,-33.642975,-27.233215,,,,,,,1
1514403828.968887,-1.293806,1.418490,-0.496671,0.012361,0.035839,-0.014819,-0.145822,-0.988424,-0.041457,-0.004324,0.009450,-0.008241,-4.772461,-33.642975,-27.233215,,,,,,,1
1514403828.978896,-1.294030,1.418682,-0.496128,0.013389,0.023010,-0.017014,-0.145648,-0.988453,-0.041372,0.012027,0.004230,-0.008066,-4.459869,-33.777576,-27.204163,,,,,,,1
1514403828.988876,-1.294761,1.418834,-0.495132,0.018732,0.028231,-0.008425,-0.145535,-0.988476,-0.041225,0.006878,0.003155,-0.011021,-4.459869,-33.777576,-27.204163,,,,,,,1
1514403828.998855,-1.295716,1.418939,-0.493808,0.020867,0.029251,-0.005208,-0.145475,-0.988492,-0.041058,-0.001468,0.006131,-0.008548,-4.511948,-33.612282,-27.322754,,,,,,,1
1514403829.008865,-1.296927,1.418995,-0.492278,0.022992,0.031269,0.003362,-0.145471,-0.988500,-0.040867,0.005594,0.004949,-0.003277,-4.511948,-33.612282,-27.322754,,,,,,,1
1514403829.018844,-1.298034,1.418970,-0.490668,0.019816,0.044063,0.008761,-0.145539,-0.988496,-0.040712,0.012162,0.005983,0.006212,-4.584747,-33.690895,-27.264099,,,,,,,1
1514403829.028823,-1.298925,1.418967,-0.489315,0.019837,0.045170,0.005559,-0.145577,-0.988496,-0.040583,0.003304,0.003328,0.017298,-4.584747,-33.690895,-27.264099,,,,,,,1
1514403829.038833,-1.299829,1.418921,-0.487825,0.019854,0.053667,0.010945,-0.145658,-0.988489,-0.040464,-0.010180,-0.001608,0.014310,-4.575989,-33.811989,-27.444397,,,,,,,1
1514403829.048812,-1.300820,1.418860,-0.486298,0.020896,0.049372,0.011996,-0.145757,-0.988480,-0.040336,-0.005122,0.001648,0.006248,-4.575989,-33.811989,-27.444397,,,,,,,1
1514403829.058791,-1.302279,1.418754,-0.484347,0.027257,0.040648,0.021594,-0.145918,-0.988464,-0.040151,0.006758,0.005676,-0.003794,-4.452560,-33.660561,-27.381104,,,,,,,1
1514403829.068801,-1.303959,1.418577,-0.482334,0.025059,0.027744,0.025811,-0.146154,-0.988437,-0.039952,0.011632,0.005206,-0.012477,-4.452560,-33.660561,-27.381104,,,,,,,1
1514403829.078780,-1.305953,1.418346,-0.480104,0.027128,0.012668,0.031096,-0.146455,-0.988402,-0.039721,0.008607,0.006163,-0.012937,-4.373856,-33.586899,-27.413940,,,,,,,1
1514403829.088760,-1.308058,1.418120,-0.477864,0.026050,0.011588,0.032158,-0.146755,-0.988368,-0.039471,0.005047,0.007975,-0.011448,-4.373856,-33.586899,-27.413940,,,,,,,1
1514403829.098769,-1.310234,1.417870,-0.475588,0.027057,-0.004497,0.033158,-0.147079,-0.988330,-0.039215,0.003112,0.006945,-0.005463,-4.397232,-33.803360,-27.272766,,,,,,,1
1514403829.108749,-1.312535,1.417621,-0.473323,0.028125,-0.005575,0.033155,-0.147407,-0.988292,-0.038939,-0.004067,0.004741,-0.000825,-4.397232,-33.803360,-27.272766,,,,,,,1
1514403829.118728,-1.314857,1.417393,-0.470944,0.027077,-0.001257,0.031033,-0.147717,-0.988257,-0.038654,-0.006458,0.007727,0.000446,-4.407303,-33.836014,-27.353455,,,,,,,1
1514403829.128707,-1.317321,1.417175,-0.468519,0.032402,-0.007705,0.031014,-0.148021,-0.988223,-0.038344,-0.002477,0.006763,-0.000794,-4.407303,-33.836014,-27.353455,,,,,,,1
1514403829.138717,-1.320020,1.416929,-0.465801,0.034533,-0.006700,0.035301,-0.148359,-0.988186,-0.038005,0.001799,0.005199,-0.003087,-4.254272,-33.823021,-27.275879,,,,,,,1
1514403829.148696,-1.322876,1.416655,-0.463060,0.034487,-0.016399,0.039536,-0.148730,-0.988144,-0.037648,0.007922,0.006470,-0.005626,-4.254272,-33.823021,-27.275879,,,,,,,1
1514403829.158675,-1.325921,1.416299,-0.460071,0.036617,-0.014352,0.045966,-0.149185,-0.988089,-0.037280,0.007355,0.004431,-0.004972,-4.357315,-33.837479,-27.345947,,,,,,,1
1514403829.168685,-1.328927,1.415981,-0.457021,0.038844,0.007107,0.042857,-0.149601,-0.988040,-0.036907,-0.001323,0.007587,0.002178,-4.357315,-33.837479,-27.345947,,,,,,,1
1514403829.178664,-1.331467,1.415658,-0.454197,0.031420,0.022175,0.039703,-0.150005,-0.987990,-0.036602,0.000057,0.008437,0.014797,-4.189072,-33.715710,-27.228638,,,,,,,1
1514403829.188644,-1.333300,1.415470,-0.452137,0.026107,0.018155,0.021492,-0.150253,-0.987961,-0.036371,-0.006501,0.006134,0.026956,-4.189072,-33.715710,-27.228638,,,,,,,1
1514403829.198653,-1.334565,1.415329,-0.450592,0.017580,0.022545,0.016149,-0.150433,-0.987939,-0.036213,-0.025181,0.001306,0.026264,-4.351471,-33.882698,-27.212524,,,,,,,1
1514403829.208618,-1.335429,1.415349,-0.449423,0.017650,0.027070,-0.002013,-0.150445,-0.987942,-0.036079,-0.030677,0.002560,0.020179,-4.351471,-33.882698,-27.212524,,,,,,,1
1514403829.218597,-1.336000,1.415420,-0.448638,0.012247,0.011053,-0.004233,-0.150397,-0.987953,-0.035976,-0.014017,0.006249,0.005276,-4.310806,-33.842499,-27.157227,,,,,,,1
1514403829.228607,-1.336715,1.415501,-0.447823,0.014364,0.007824,-0.003176,-0.150344,-0.987966,-0.035850,-0.005723,0.009969,-0.003533,-4.310806,-33.842499,-27.157227,,,,,,,1
1514403829.238586,-1.337528,1.415540,-0.446891,0.014344,0.005624,0.001093,-0.150334,-0.987972,-0.035718,-0.000499,0.010097,-0.005480,-4.537354,-33.840057,-27.144531,,,,,,,1
1514403829.248565,-1.338333,1.415568,-0.445978,0.014361,0.009891,0.002182,-0.150337,-0.987976,-0.035591,0.002998,0.008530,0.001671,-4.537354,-33.840057,-27.144531,,,,,,,1
1514403829.258575,-1.339201,1.415554,-0.444917,0.014369,0.015189,0.006484,-0.150381,-0.987974,-0.035464,0.001181,0.007795,0.003497,-4.418076,-33.808754,-27.189697,,,,,,,1
1514403829.268554,-1.340109,1.415519,-0.443858,0.014353,0.010905,0.006465,-0.150448,-0.987969,-0.035335,0.001141,0.007057,0.001430,-4.418076,-33.808754,-27.189697,,,,,,,1
1514403829.278533,-1.341260,1.415477,-0.442632,0.017513,0.000138,0.009631,-0.150529,-0.987962,-0.035172,0.004686,0.005235,0.000290,-4.637985,-34.036949,-27.171875,,,,,,,1
1514403829.288543,-1.342462,1.415383,-0.441375,0.015353,-0.003111,0.012822,-0.150661,-0.987948,-0.035012,0.001797,0.000567,-0.000709,-4.234070,-34.031021,-27.078796,,,,,,,1
1514403829.298522,-1.343603,1.415345,-0.440148,0.017552,0.008735,0.007531,-0.150738,-0.987942,-0.034848,-0.003697,0.001705,0.001508,-4.234070,-34.031021,-27.078796,,,,,,,1
1514403829.308502,-1.344882,1.415271,-0.438759,0.018585,0.003305,0.012856,-0.150855,-0.987930,-0.034672,0.000998,0.006103,-0.001110,-4.461914,-34.031387,-27.109314,,,,,,,1
1514403829.318511,-1.346279,1.415209,-0.437415,0.018545,-0.010562,0.008515,-0.150963,-0.987921,-0.034475,0.002785,0.006689,-0.001444,-4.461914,-34.031387,-27.109314,,,,,,,1
1514403829.328491,-1.347307,1.415192,-0.436464,0.012122,-0.015821,0.003133,-0.151014,-0.987918,-0.034323,-0.004046,0.010638,0.000891,-4.710251,-33.978588,-27.095703,,,,,,,1
1514403829.338470,-1.348073,1.415223,-0.435772,0.010028,-0.008228,-0.003255,-0.151011,-0.987923,-0.034201,-0.014288,0.010659,0.005026,-4.710251,-33.978588,-27.095703,,,,,,,1
1514403829.348480,-1.348675,1.415347,-0.435196,0.010051,-0.009171,-0.012885,-0.150912,-0.987942,-0.034083,-0.017026,0.006695,0.007197,-4.408554,-33.873726,-27.094177,,,,,,,1
1514403829.358459,-1.349330,1.415494,-0.434641,0.012180,-0.011336,-0.011821,-0.150793,-0.987965,-0.033952,-0.010935,0.004353,0.005144,-4.408554,-33.873726,-27.094177,,,,,,,1
1514403829.368438,-1.349939,1.415653,-0.434121,0.011099,-0.016645,-0.015056,-0.150659,-0.987989,-0.033826,-0.008566,0.005995,-0.000293,-4.469086,-33.910927,-27.301147,,,,,,,1
1514403829.378448,-1.350566,1.415844,-0.433696,0.010011,-0.023038,-0.017225,-0.150497,-0.988019,-0.033691,-0.000077,0.004743,0.000854,-4.469086,-33.910927,-27.301147,,,,,,,1
1514403829.388427,-1.351191,1.416007,-0.433217,0.011076,-0.020940,-0.014006,-0.150361,-0.988044,-0.033561,0.000565,0.003379,0.002876,-4.496613,-33.883739,-27.187622,,,,,,,1
1514403829.398406,-1.351941,1.416188,-0.432604,0.013258,-0.011280,-0.016098,-0.150212,-0.988072,-0.033410,-0.003994,0.006520,0.000085,-4.496613,-33.883739,-27.187622,,,,,,,1
1514403829.408416,-1.352622,1.416360,-0.431947,0.013269,-0.008100,-0.013944,-0.150068,-0.988098,-0.033271,-0.002489,0.007111,0.001243,-4.345901,-33.980347,-27.240540,,,,,,,1
1514403829.418395,-1.353312,1.416486,-0.431309,0.011134,-0.003865,-0.009650,-0.149970,-0.988118,-0.033140,-0.000253,0.005452,0.003019,-4.345901,-33.980347,-27.240540,,,,,,,1
1514403829.428375,-1.353715,1.416523,-0.430800,0.006870,0.007825,-0.001050,-0.149948,-0.988123,-0.033072,0.003586,0.003626,0.005698,-4.418137,-33.789066,-27.266113,,,,,,,1
1514403829.438385,-1.353851,1.416554,-0.430555,0.003682,0.012151,-0.003175,-0.149922,-0.988128,-0.033045,0.007222,0.004272,0.013254,-4.418137,-33.789066,-27.266113,,,,,,,1
1514403829.448364,-1.353739,1.416591,-0.430414,0.002664,0.025005,-0.003119,-0.149883,-0.988134,-0.033054,-0.001530,0.004690,0.014591,-4.514862,-33.943203,-27.016479,,,,,,,1
1514403829.458343,-1.353306,1.416659,-0.430437,0.001678,0.044347,-0.007313,-0.149803,-0.988144,-0.033104,-0.011300,0.003708,0.011544,-4.514862,-33.943203,-27.016479,,,,,,,1
1514403829.468353,-1.352993,1.416725,-0.430326,0.001629,0.033610,-0.005222,-0.149729,-0.988154,-0.033137,-0.004919,0.003337,0.004084,-4.461853,-33.863152,-27.141235,,,,,,,1
1514403829.478332,-1.352941,1.416779,-0.430083,0.006956,0.029275,-0.003093,-0.149674,-0.988163,-0.033133,0.001176,0.004871,-0.003610,-4.461853,-33.863152,-27.141235,,,,,,,1
1514403829.488311,-1.353131,1.416764,-0.429544,0.006930,0.028088,0.005459,-0.149694,-0.988161,-0.033108,0.004812,0.005006,-0.005039,-4.335449,-33.817657,-27.250671,,,,,,,1
1514403829.498321,-1.353536,1.416705,-0.428846,0.007992,0.029097,0.009744,-0.149765,-0.988151,-0.033060,0.006485,0.005257,-0.002630,-4.335449,-33.817657,-27.250671,,,,,,,1
1514403829.508300,-1.353947,1.416567,-0.428012,0.009072,0.037545,0.018340,-0.149912,-0.988130,-0.033028,0.008387,0.007890,0.003777,-4.362640,-34.097973,-27.093567,,,,,,,1
1514403829.518280,-1.354603,1.416395,-0.426958,0.011195,0.035351,0.021543,-0.150100,-0.988104,-0.032966,0.005416,0.004125,0.004050,-4.362640,-34.097973,-27.093567,,,,,,,1
1514403829.528289,-1.355318,1.416209,-0.425793,0.011203,0.038568,0.021557,-0.150301,-0.988075,-0.032897,0.002428,0.000542,0.001907,-4.472992,-33.929226,-27.247437,,,,,,,1
1514403829.538269,-1.356115,1.416002,-0.424664,0.012235,0.029966,0.023660,-0.150528,-0.988043,-0.032821,0.001160,0.002234,0.000763,-4.472992,-33.929226,-27.247437,,,,,,,1
1514403829.548248,-1.356857,1.415804,-0.423583,0.011164,0.027840,0.022579,-0.150743,-0.988013,-0.032751,-0.001906,0.005103,0.000799,-4.458023,-33.984756,-27.076843,,,,,,,1
1514403829.558258,-1.357318,1.415612,-0.422756,0.009066,0.037517,0.020479,-0.150944,-0.987983,-0.032722,-0.004558,0.006904,0.006400,-4.458023,-33.984756,-27.076843,,,,,,,1
1514403829.568237,-1.357613,1.415461,-0.422008,0.006954,0.041868,0.016217,-0.151100,-0.987960,-0.032709,-0.006829,0.005721,0.008722,-4.457520,-34.042534,-27.254944,,,,,,,1
1514403829.578216,-1.357762,1.415340,-0.421385,0.006975,0.045124,0.013023,-0.151221,-0.987941,-0.032712,-0.009118,0.005092,0.007413,-4.457520,-34.042534,-27.254944,,,,,,,1
1514403829.588226,-1.357933,1.415252,-0.420739,0.006962,0.039813,0.009790,-0.151312,-0.987927,-0.032704,-0.007959,0.005429,0.003270,-4.457703,-33.924576,-27.298889,,,,,,,1
1514403829.598205,-1.358206,1.415190,-0.420153,0.009057,0.026965,0.008666,-0.151381,-0.987918,-0.032676,-0.003298,0.004351,-0.001275,-4.457703,-33.924576,-27.298889,,,,,,,1
1514403829.608184,-1.358394,1.415143,-0.419682,0.003696,0.021674,0.005425,-0.151431,-0.987911,-0.032657,-0.001416,0.004771,0.000400,-4.358398,-33.983505,-27.348999,,,,,,,1
1514403829.618194,-1.358339,1.415127,-0.419484,0.001592,0.028167,0.001172,-0.151445,-0.987908,-0.032669,-0.005019,0.007302,0.006149,-4.358398,-33.983505,-27.348999,,,,,,,1
1514403829.628173,-1.358021,1.415164,-0.419373,0.000590,0.040034,-0.005194,-0.151397,-0.987914,-0.032709,-0.010086,0.009078,0.011362,-4.449570,-33.881493,-27.267761,,,,,,,1
1514403829.638153,-1.357556,1.415270,-0.419396,0.000628,0.045476,-0.011587,-0.151281,-0.987930,-0.032757,-0.013453,0.009292,0.009701,-4.449570,-33.881493,-27.267761,,,,,,,1
1514403829.648132,-1.356961,1.415427,-0.419574,-0.000484,0.032724,-0.018065,-0.151109,-0.987954,-0.032814,-0.012374,0.006738,0.005898,-4.242599,-33.995079,-27.247314,,,,,,,1
1514403829.658142,-1.356432,1.415623,-0.419867,-0.000515,0.022056,-0.021322,-0.150904,-0.987985,-0.032853,-0.007406,0.004449,0.002641,-4.242599,-33.995079,-27.247314,,,,,,,1
1514403829.668121,-1.355729,1.415878,-0.420377,-0.004801,0.011468,-0.029932,-0.150633,-0.988024,-0.032905,-0.006410,0.004397,0.001457,-3.972717,-34.057076,-27.231201,,,,,,,1
1514403829.678100,-1.355200,1.416194,-0.420828,0.000549,0.009347,-0.033141,-0.150311,-0.988073,-0.032918,-0.010990,0.003698,0.001103,-3.972717,-34.057076,-27.231201,,,,,,,1
1514403829.688110,-1.354461,1.416522,-0.421380,-0.003700,0.016911,-0.036324,-0.149969,-0.988123,-0.032959,-0.010691,0.004649,0.002442,-4.340927,-34.094379,-27.045532,,,,,,,1
1514403829.698089,-1.353361,1.416886,-0.422350,-0.007986,0.012687,-0.039559,-0.149582,-0.988179,-0.033047,-0.004028,0.007207,0.011410,-4.340927,-34.094379,-27.045532,,,,,,,1
1514403829.708068,-1.352058,1.417257,-0.423413,-0.009013,0.023417,-0.040583,-0.149179,-0.988236,-0.033162,-0.006033,0.007569,0.007283,-4.126373,-33.858955,-27.166687,,,,,,,1
1514403829.718078,-1.350558,1.417650,-0.424754,-0.013322,0.013822,-0.042772,-0.148750,-0.988296,-0.033301,-0.008507,0.008941,0.006186,-4.126373,-33.858955,-27.166687,,,,,,,1
1514403829.728057,-1.349040,1.418040,-0.426083,-0.012236,0.017044,-0.043826,-0.148323,-0.988355,-0.033442,-0.004936,0.010313,0.002634,-4.207733,-33.978382,-27.024414,,,,,,,1
1514403829.738037,-1.347594,1.418415,-0.427315,-0.011155,0.022352,-0.040591,-0.147913,-0.988412,-0.033574,-0.001302,0.010965,0.000295,-4.207733,-33.978382,-27.024414,,,,,,,1
1514403829.748046,-1.346326,1.418807,-0.428348,-0.005820,0.017004,-0.042745,-0.147492,-0.988472,-0.033675,-0.001464,0.006401,-0.003922,-4.184662,-33.949142,-27.227173,,,,,,,1
1514403829.758026,-1.345495,1.419202,-0.429009,-0.000473,0.018025,-0.040592,-0.147085,-0.988532,-0.033711,-0.001841,0.005087,-0.007259,-4.184662,-33.949142,-27.227173,,,,,,,1
1514403829.768005,-1.344640,1.419585,-0.429746,-0.002674,0.001968,-0.040667,-0.146686,-0.988589,-0.033751,0.001911,0.005801,-0.005021,-3.760635,-34.029842,-27.068726,,,,,,,1
1514403829.778015,-1.344063,1.419935,-0.430367,-0.000573,-0.004539,-0.035345,-0.146330,-0.988642,-0.033758,0.002592,0.003977,-0.003229,-3.760635,-34.029842,-27.068726,,,,,,,1
1514403829.787994,-1.343310,1.420282,-0.431122,-0.003778,-0.004496,-0.037490,-0.145970,-0.988694,-0.033791,0.000966,0.007157,0.001595,-3.979675,-33.976013,-27.139221,,,,,,,1
1514403829.797973,-1.342385,1.420678,-0.432053,-0.002665,0.003069,-0.042802,-0.145557,-0.988753,-0.033837,-0.005719,0.007613,0.003427,-3.979675,-33.976013,-27.139221,,,,,,,1
1514403829.807983,-1.341392,1.421073,-0.432900,-0.004776,0.010558,-0.041702,-0.145143,-0.988812,-0.033893,-0.011900,0.004605,0.007221,-3.897049,-33.933182,-27.014709,,,,,,,1
1514403829.817962,-1.340154,1.421480,-0.434016,-0.009038,0.012760,-0.044908,-0.144708,-0.988873,-0.033980,-0.005362,0.005139,0.006667,-3.897049,-33.933182,-27.014709,,,,,,,1
1514403829.827941,-1.338936,1.421939,-0.435212,-0.006954,-0.005383,-0.050334,-0.144225,-0.988941,-0.034052,-0.000017,0.005192,0.006785,-3.845749,-33.944214,-27.311035,,,,,,,1
1514403829.837951,-1.337390,1.422417,-0.436770,-0.010126,0.003227,-0.052440,-0.143712,-0.989012,-0.034166,-0.008998,0.003798,0.006593,-3.845749,-33.944214,-27.311035,,,,,,,1
1514403829.847930,-1.335786,1.422966,-0.438277,-0.009024,0.006554,-0.060981,-0.143130,-0.989093,-0.034270,-0.012067,0.003726,0.011107,-3.910828,-33.891575,-27.395996,,,,,,,1
1514403829.857910,-1.334034,1.423552,-0.439985,-0.011162,0.005521,-0.063128,-0.142505,-0.989179,-0.034385,-0.012112,0.004316,0.008323,-3.910828,-33.891575,-27.395996,,,,,,,1
1514403829.867919,-1.332249,1.424139,-0.441683,-0.012232,0.004450,-0.063135,-0.141879,-0.989265,-0.034502,-0.009167,0.001838,0.005556,-3.846054,-33.925980,-27.135071,,,,,,,1
1514403829.877899,-1.330599,1.424719,-0.443321,-0.009036,0.002267,-0.061000,-0.141264,-0.989350,-0.034599,-0.001940,0.005555,0.002510,-3.846054,-33.925980,-27.135071,,,,,,,1
1514403829.887878,-1.329121,1.425239,-0.444691,-0.006888,0.008597,-0.054550,-0.140712,-0.989425,-0.034685,0.004299,0.007324,-0.004134,-3.657623,-34.019890,-27.252747,,,,,,,1
1514403829.897888,-1.327429,1.425694,-0.446246,-0.012216,0.018186,-0.049168,-0.140218,-0.989491,-0.034815,0.008702,0.005284,0.000467,-3.657623,-34.019890,-27.252747,,,,,,,1
1514403829.907867,-1.325818,1.426146,-0.447635,-0.007944,0.018141,-0.047022,-0.139727,-0.989556,-0.034932,0.006121,0.004724,0.003865,-3.741150,-33.997654,-27.085754,,,,,,,1
1514403829.917846,-1.324309,1.426534,-0.448939,-0.010082,0.022363,-0.041659,-0.139302,-0.989612,-0.035049,-0.000743,0.005695,-0.000168,-3.741150,-33.997654,-27.085754,,,,,,,1
1514403829.927856,-1.322837,1.426869,-0.450135,-0.010098,0.022309,-0.037381,-0.138929,-0.989660,-0.035172,0.002790,0.007452,0.001496,-3.709915,-34.064415,-27.187988,,,,,,,1
1514403829.937835,-1.321474,1.427177,-0.451352,-0.009068,0.014749,-0.033135,-0.138585,-0.989704,-0.035287,0.005437,0.003727,-0.003318,-3.709915,-34.064415,-27.187988,,,,,,,1
1514403829.947814,-1.320388,1.427441,-0.452252,-0.005873,0.013589,-0.027786,-0.138294,-0.989742,-0.035372,0.004764,0.005047,-0.002851,-3.623230,-33.816643,-27.140564,,,,,,,1
1514403829.957824,-1.319548,1.427682,-0.452989,-0.004825,0.009272,-0.025664,-0.138033,-0.989777,-0.035429,0.002413,0.004715,-0.003389,-3.623230,-33.816643,-27.140564,,,,,,,1
1514403829.967803,-1.318894,1.427898,-0.453488,-0.001624,0.011348,-0.021371,-0.137802,-0.989807,-0.035466,0.000518,0.007660,-0.003810,-3.731918,-33.888672,-27.305725,,,,,,,1
1514403829.977783,-1.318299,1.428129,-0.453985,-0.002693,0.009253,-0.024591,-0.137559,-0.989840,-0.035491,-0.000549,0.009585,-0.001268,-3.731918,-33.888672,-27.305725,,,,,,,1
1514403829.987792,-1.317588,1.428395,-0.454560,-0.003757,0.007154,-0.027811,-0.137279,-0.989878,-0.035523,-0.004994,0.006937,0.004791,-3.602631,-33.954990,-27.373413,,,,,,,1
1514403829.997772,-1.316464,1.428697,-0.455618,-0.006945,0.008324,-0.034229,-0.136950,-0.989921,-0.035602,-0.011381,0.005759,0.010211,-3.602631,-33.954990,-27.373413,,,,,,,1
1514403830.007751,-1.314974,1.429043,-0.456898,-0.010108,0.018070,-0.040609,-0.136564,-0.989970,-0.035719,-0.013445,0.004450,0.014158,-3.569061,-33.876335,-27.255676,,,,,,,1
1514403830.017761,-1.313025,1.429443,-0.458667,-0.013292,0.020312,-0.047022,-0.136111,-0.990026,-0.035884,-0.011258,0.004034,0.012629,-3.569061,-33.876335,-27.255676,,,,,,,1
1514403830.027740,-1.310757,1.429900,-0.460729,-0.018631,0.017184,-0.052393,-0.135592,-0.990091,-0.036076,-0.006803,0.006036,0.007481,-3.826721,-33.947624,-27.254272,,,,,,,1
1514403830.037719,-1.308083,1.430379,-0.463300,-0.022915,0.011918,-0.057772,-0.135038,-0.990158,-0.036316,-0.007785,0.005691,0.007141,-3.826721,-33.947624,-27.254272,,,,,,,1
1514403830.047729,-1.305201,1.430920,-0.466081,-0.022921,0.005577,-0.064218,-0.134415,-0.990233,-0.036564,-0.008834,0.004821,0.007038,-3.441345,-33.860046,-27.200317,,,,,,,1
1514403830.057708,-1.302469,1.431505,-0.468697,-0.020729,0.017394,-0.067370,-0.133756,-0.990315,-0.036777,-0.011507,0.009556,0.002094,-3.441345,-33.860046,-27.200317,,,,,,,1
1514403830.067687,-1.299287,1.432163,-0.471775,-0.025028,0.004719,-0.079200,-0.133011,-0.990406,-0.037028,-0.009567,0.007633,0.006327,-3.395782,-33.484886,-27.338135,,,,,,,1
1514403830.077697,-1.295845,1.432902,-0.475137,-0.027110,0.015525,-0.085573,-0.132179,-0.990508,-0.037287,-0.014916,0.005843,0.008128,-3.395782,-33.484886,-27.338135,,,,,,,1
1514403830.087676,-1.291939,1.433687,-0.478847,-0.028153,0.018832,-0.091978,-0.131285,-0.990615,-0.037589,-0.018999,0.007339,0.012824,-3.337921,-33.791588,-27.306396,,,,,,,1
1514403830.097656,-1.287899,1.434543,-0.482737,-0.029199,0.018951,-0.100536,-0.130315,-0.990732,-0.037882,-0.012736,0.004953,0.009028,-3.337921,-33.791588,-27.306396,,,,,,,1
1514403830.107666,-1.283356,1.435461,-0.487109,-0.031344,0.012618,-0.106986,-0.129269,-0.990856,-0.038215,-0.004932,0.005032,0.008644,-3.355896,-33.908730,-27.212524,,,,,,,1
1514403830.117645,-1.278904,1.436401,-0.491525,-0.028154,0.007249,-0.107004,-0.128202,-0.990983,-0.038521,-0.008670,0.005555,0.003243,-3.355896,-33.908730,-27.212524,,,,,,,1
1514403830.127624,-1.274363,1.437385,-0.495966,-0.030272,0.007357,-0.114494,-0.127092,-0.991114,-0.038818,-0.007398,0.009119,0.004303,-3.373566,-33.680206,-27.379089,,,,,,,1
1514403830.137634,-1.269456,1.438430,-0.500914,-0.031349,-0.000036,-0.122016,-0.125909,-0.991252,-0.039133,-0.009299,0.010219,-0.001287,-3.373566,-33.680206,-27.379089,,,,,,,1
1514403830.147613,-1.264527,1.439521,-0.505815,-0.029195,0.001068,-0.125216,-0.124681,-0.991396,-0.039426,-0.014403,0.012468,-0.004458,-3.207016,-33.974823,-27.571777,,,,,,,1
1514403830.157592,-1.259177,1.440629,-0.511114,-0.032356,0.010779,-0.129457,-0.123419,-0.991540,-0.039755,-0.012170,0.011819,0.002539,-3.207016,-33.974823,-27.571777,,,,,,,1
1514403830.167602,-1.253807,1.441828,-0.516327,-0.026974,0.015145,-0.136915,-0.122074,-0.991695,-0.040046,-0.010433,0.007396,0.004219,-3.338547,-33.831223,-27.378967,,,,,,,1
1514403830.177581,-1.247882,1.443094,-0.522198,-0.034468,0.006735,-0.146592,-0.120642,-0.991857,-0.040370,-0.011988,0.002599,0.005992,-3.338547,-33.831223,-27.378967,,,,,,,1
1514403830.187561,-1.241378,1.444442,-0.528683,-0.036601,0.002592,-0.156241,-0.119110,-0.992028,-0.040721,-0.017563,0.007531,0.012736,-3.249313,-33.811398,-27.363464,,,,,,,1
1514403830.197540,-1.234559,1.445853,-0.535469,-0.034420,0.009097,-0.162626,-0.117507,-0.992205,-0.041070,-0.021638,0.010881,0.010751,-3.249313,-33.811398,-27.363464,,,,,,,1
1514403830.207540,-1.227315,1.447321,-0.542690,-0.036561,0.001702,-0.170149,-0.115832,-0.992387,-0.041428,-0.017026,0.008988,0.005906,-3.227127,-33.932121,-27.462646,,,,,,,1
1514403830.217519,-1.219571,1.448815,-0.550568,-0.040873,-0.011062,-0.175562,-0.114114,-0.992569,-0.041813,-0.009924,0.010743,0.004094,-3.227127,-33.932121,-27.462646,,,,,,,1
1514403830.227498,-1.211366,1.450342,-0.558910,-0.041939,-0.013126,-0.180921,-0.112347,-0.992754,-0.042215,-0.008335,0.011339,0.003991,-3.102936,-33.788322,-27.484863,,,,,,,1
1514403830.237508,-1.202612,1.451899,-0.567828,-0.045129,-0.010913,-0.185195,-0.110529,-0.992940,-0.042639,-0.012365,0.008657,0.007681,-3.102936,-33.788322,-27.484863,,,,,,,1
1514403830.247487,-1.193343,1.453446,-0.577155,-0.047233,-0.002338,-0.185160,-0.108698,-0.993122,-0.043095,-0.014226,0.005100,0.010914,-2.978012,-33.745811,-27.448181,,,,,,,1
1514403830.257466,-1.183747,1.454969,-0.586826,-0.047231,-0.000225,-0.183012,-0.106877,-0.993300,-0.043564,-0.008571,0.006529,0.009903,-2.978012,-33.745811,-27.448181,,,,,,,1
1514403830.267476,-1.173958,1.456439,-0.596697,-0.049413,-0.008844,-0.178776,-0.105096,-0.993468,-0.044043,-0.001303,0.005370,0.006766,-2.915237,-33.741676,-27.698303,,,,,,,1
1514403830.277455,-1.164318,1.457836,-0.606426,-0.046184,0.001754,-0.171235,-0.103390,-0.993627,-0.044504,0.002682,0.007283,-0.000082,-2.915237,-33.741676,-27.698303,,,,,,,1
1514403830.287435,-1.155072,1.459154,-0.615618,-0.041920,0.005896,-0.161584,-0.101773,-0.993774,-0.044928,0.003278,0.010406,-0.010034,-2.625732,-33.779156,-27.504700,,,,,,,1
1514403830.297444,-1.145980,1.460417,-0.624866,-0.039868,-0.014521,-0.157393,-0.100215,-0.993914,-0.045333,0.005259,0.008853,-0.016526,-2.625732,-33.779156,-27.504700,,,,,,,1
1514403830.307424,-1.137394,1.461630,-0.633717,-0.036737,-0.030703,-0.149972,-0.098725,-0.994047,-0.045685,0.007996,0.007216,-0.015686,-2.611008,-33.789207,-27.711121,,,,,,,1
1514403830.317403,-1.129082,1.462788,-0.642487,-0.036801,-0.044685,-0.145756,-0.097301,-0.994173,-0.046011,0.006496,0.001436,-0.005136,-2.611008,-33.789207,-27.711121,,,,,,,1
1514403830.327413,-1.120557,1.463954,-0.651475,-0.037861,-0.043581,-0.147893,-0.095859,-0.994298,-0.046333,-0.000577,-0.000453,0.003517,-2.448654,-33.667034,-27.650696,,,,,,,1
1514403830.337392,-1.111747,1.465117,-0.660666,-0.036740,-0.029660,-0.147828,-0.094409,-0.994421,-0.046663,-0.008695,0.004141,0.009767,-2.448654,-33.667034,-27.650696,,,,,,,1
1514403830.347371,-1.102917,1.466267,-0.669644,-0.032403,-0.013642,-0.145610,-0.092970,-0.994542,-0.046978,-0.011584,0.006276,0.010875,-2.381699,-33.825745,-27.646912,,,,,,,1
1514403830.357381,-1.094124,1.467372,-0.678548,-0.029183,-0.005187,-0.138079,-0.091574,-0.994656,-0.047288,-0.004953,0.008466,0.004731,-2.381699,-33.825745,-27.646912,,,,,,,1
1514403830.367360,-1.085733,1.468409,-0.686898,-0.029172,0.003299,-0.131624,-0.090258,-0.994763,-0.047572,0.005343,0.011471,0.000071,-2.468536,-33.899876,-27.716309,,,,,,,1
1514403830.377339,-1.076876,1.469428,-0.695851,-0.032426,-0.009527,-0.132757,-0.088939,-0.994867,-0.047888,0.008022,0.008417,0.001242,-2.468536,-33.899876,-27.716309,,,,,,,1
1514403830.387349,-1.068053,1.470434,-0.704795,-0.031371,-0.012777,-0.130630,-0.087635,-0.994968,-0.048188,-0.001431,0.001178,0.005127,-2.368790,-33.836346,-27.836243,,,,,,,1
1514403830.397328,-1.059347,1.471375,-0.713668,-0.030321,-0.012882,-0.123141,-0.086393,-0.995062,-0.048489,-0.006274,-0.000315,0.007535,-2.368790,-33.836346,-27.836243,,,,,,,1
1514403830.407308,-1.051009,1.472284,-0.722127,-0.028197,-0.015060,-0.121008,-0.085196,-0.995152,-0.048756,-0.003763,0.001911,0.001164,-2.346283,-33.914879,-28.076538,,,,,,,1
1514403830.417317,-1.043184,1.473133,-0.730137,-0.023951,-0.016292,-0.110310,-0.084079,-0.995235,-0.048994,0.003024,0.002437,-0.005892,-2.346283,-33.914879,-28.076538,,,,,,,1
1514403830.427297,-1.036174,1.473890,-0.737305,-0.020782,-0.018605,-0.098549,-0.083084,-0.995308,-0.049197,0.009140,0.002342,-0.008420,-2.405243,-33.822395,-27.895752,,,,,,,1
1514403830.437276,-1.030211,1.474516,-0.743543,-0.018717,-0.026342,-0.081467,-0.082254,-0.995369,-0.049371,0.016031,0.003410,-0.012229,-2.405243,-33.822395,-27.895752,,,,,,,1
1514403830.447286,-1.026029,1.475043,-0.748127,-0.007079,-0.045923,-0.062282,-0.081598,-0.995419,-0.049443,0.022440,0.003979,-0.013347,-2.317596,-33.669151,-27.750000,,,,,,,1
1514403830.457265,-1.023928,1.475457,-0.750585,0.001497,-0.027992,-0.044003,-0.081141,-0.995459,-0.049399,0.024958,0.002249,-0.013238,-2.317596,-33.669151,-27.750000,,,,,,,1
1514403830.467244,-1.022328,1.475776,-0.752449,0.001460,-0.034526,-0.036545,-0.080790,-0.995489,-0.049363,0.023326,0.002203,-0.004272,-2.165039,-33.640846,-27.791931,,,,,,,1
1514403830.477254,-1.021274,1.476052,-0.753818,0.005752,-0.023961,-0.026864,-0.080504,-0.995515,-0.049305,0.009063,0.002305,-0.005261,-2.165039,-33.640846,-27.791931,,,,,,,1
1514403830.487233,-1.021114,1.476312,-0.754076,0.012191,-0.013326,-0.022527,-0.080275,-0.995540,-0.049182,-0.000185,0.003642,-0.002546,-2.366745,-33.708473,-27.673035,,,,,,,1
1514403830.497212,-1.020968,1.476521,-0.754485,0.006766,-0.031557,-0.019409,-0.080090,-0.995559,-0.049085,0.003704,0.003357,-0.001224,-2.366745,-33.708473,-27.673035,,,,,,,1
1514403830.507222,-1.021063,1.476670,-0.754604,0.007852,-0.023098,-0.011882,-0.079966,-0.995573,-0.048999,0.005458,0.003584,-0.000348,-2.344711,-33.966690,-27.726685,,,,,,,1
1514403830.517201,-1.021423,1.476798,-0.754442,0.006786,-0.019923,-0.008661,-0.079875,-0.995585,-0.048903,0.003139,0.004588,0.002547,-2.344711,-33.966690,-27.726685,,,,,,,1
1514403830.527181,-1.021794,1.476868,-0.754273,0.004609,-0.027472,-0.004420,-0.079832,-0.995592,-0.048836,-0.000505,0.005724,0.001580,-2.236404,-33.695595,-27.859131,,,,,,,1
1514403830.537190,-1.022693,1.476908,-0.753534,0.009997,-0.011527,0.003148,-0.079843,-0.995596,-0.048744,0.001428,0.005438,0.003044,-2.236404,-33.695595,-27.859131,,,,,,,1
1514403830.547170,-1.023946,1.476891,-0.752280,0.008921,-0.007321,0.009582,-0.079918,-0.995594,-0.048652,0.006279,0.002201,0.004615,-2.327408,-33.735497,-27.862366,,,,,,,1
1514403830.557149,-1.024896,1.476853,-0.751483,0.002471,-0.017963,0.006314,-0.079996,-0.995591,-0.048596,0.006266,0.003235,0.003354,-2.327408,-33.735497,-27.862366,,,,,,,1
1514403830.567159,-1.025852,1.476793,-0.750615,0.004623,-0.011585,0.009555,-0.080093,-0.995585,-0.048550,-0.001587,0.004542,0.006253,-2.342453,-33.723373,-27.916138,,,,,,,1
1514403830.577138,-1.027519,1.476760,-0.748895,0.014325,0.009770,0.011807,-0.080202,-0.995582,-0.048433,-0.009230,0.004325,0.004427,-2.342453,-33.723373,-27.916138,,,,,,,1
1514403830.587117,-1.029546,1.476760,-0.746662,0.018610,0.010822,0.011819,-0.080300,-0.995582,-0.048271,-0.000236,0.004829,0.001915,-2.074509,-33.683548,-27.683289,,,,,,,1
1514403830.597127,-1.031153,1.476712,-0.744970,0.008971,0.008704,0.012862,-0.080418,-0.995577,-0.048166,0.003697,0.005694,0.001749,-2.074509,-33.683548,-27.683289,,,,,,,1
1514403830.607106,-1.032993,1.476658,-0.742993,0.015375,0.005451,0.013929,-0.080553,-0.995572,-0.048046,-0.000731,0.003553,0.000575,-2.068985,-33.856270,-27.834290,,,,,,,1
1514403830.617085,-1.035388,1.476583,-0.740548,0.015356,0.004308,0.019272,-0.080731,-0.995565,-0.047890,-0.002917,0.000295,-0.003105,-2.068985,-33.856270,-27.834290,,,,,,,1
1514403830.627095,-1.038128,1.476452,-0.737756,0.018519,-0.003305,0.026730,-0.080975,-0.995553,-0.047735,0.002514,0.006783,-0.003504,-2.045609,-33.816452,-27.884460,,,,,,,1
1514403830.637074,-1.042304,1.476282,-0.733483,0.026042,0.013659,0.037515,-0.081320,-0.995537,-0.047482,0.008292,0.005226,-0.007571,-2.045609,-33.816452,-27.884460,,,,,,,1
1514403830.647054,-1.045877,1.476082,-0.729636,0.018584,0.019103,0.033248,-0.081662,-0.995518,-0.047292,0.017377,0.005192,0.002568,-2.059204,-33.721176,-27.918274,,,,,,,1
1514403830.657063,-1.048715,1.475910,-0.726622,0.016455,0.018113,0.027892,-0.081946,-0.995502,-0.047146,0.001028,0.006915,0.008770,-2.059204,-33.721176,-27.918274,,,,,,,1
1514403830.667043,-1.051701,1.475815,-0.723195,0.024049,0.042774,0.023737,-0.082169,-0.995493,-0.046948,-0.024658,0.005533,0.007199,-2.303757,-33.968044,-27.555054,,,,,,,1
1514403830.677022,-1.054162,1.475764,-0.720367,0.018669,0.028972,0.016179,-0.082327,-0.995488,-0.046770,-0.017312,0.005849,0.004137,-2.303757,-33.968044,-27.555054,,,,,,,1
1514403830.687032,-1.056725,1.475732,-0.717680,0.018570,0.001152,0.013915,-0.082474,-0.995485,-0.046574,-0.002014,0.005449,-0.003322,-2.301422,-33.857121,-27.739197,,,,,,,1
1514403830.697011,-1.059121,1.475695,-0.715291,0.018556,-0.002076,0.014971,-0.082618,-0.995481,-0.046395,-0.001885,0.003309,-0.003577,-2.301422,-33.857121,-27.739197,,,,,,,1
1514403830.706990,-1.061696,1.475664,-0.712637,0.019644,0.003277,0.014996,-0.082765,-0.995478,-0.046198,-0.006743,0.005885,0.001795,-2.285568,-33.817749,-27.646545,,,,,,,1
1514403830.717000,-1.064071,1.475612,-0.710191,0.017509,0.005413,0.016072,-0.082920,-0.995473,-0.046026,-0.004940,0.006429,0.005346,-2.285568,-33.817749,-27.646545,,,,,,,1
1514403830.726979,-1.066176,1.475532,-0.707948,0.014296,0.007528,0.019284,-0.083086,-0.995466,-0.045890,0.000475,0.005048,0.006492,-2.185028,-33.530716,-27.621521,,,,,,,1
1514403830.736958,-1.068463,1.475410,-0.705629,0.012120,-0.000005,0.022455,-0.083297,-0.995454,-0.045758,0.002228,0.003847,0.006284,-2.185028,-33.530716,-27.621521,,,,,,,1
1514403830.746938,-1.070887,1.475227,-0.703187,0.012084,-0.006489,0.026704,-0.083567,-0.995437,-0.045643,0.002192,0.003509,0.004032,-2.330200,-33.668793,-27.704834,,,,,,,1
1514403830.756948,-1.074591,1.475035,-0.699485,0.024939,0.002981,0.035327,-0.083904,-0.995418,-0.045424,0.003200,0.004986,-0.004655,-2.330200,-33.668793,-27.704834,,,,,,,1
1514403830.766927,-1.078817,1.474831,-0.695148,0.027060,0.000788,0.038529,-0.084275,-0.995399,-0.045166,0.008576,0.007118,-0.009217,-2.433243,-33.741722,-27.535706,,,,,,,1
1514403830.776906,-1.083115,1.474633,-0.690996,0.024842,-0.021668,0.036286,-0.084643,-0.995380,-0.044896,0.006869,0.005847,-0.005199,-2.433243,-33.741722,-27.535706,,,,,,,1
1514403830.786916,-1.087057,1.474413,-0.687170,0.020592,-0.016303,0.036303,-0.085014,-0.995359,-0.044664,-0.004311,0.004865,0.003633,-2.395554,-34.030983,-27.539734,,,,,,,1
1514403830.796895,-1.090703,1.474217,-0.683617,0.020623,-0.010890,0.032049,-0.085349,-0.995340,-0.044444,-0.009301,0.006174,0.009745,-2.395554,-34.030983,-27.539734,,,,,,,1
1514403830.806874,-1.093915,1.474035,-0.680478,0.017401,-0.015131,0.029885,-0.085651,-0.995322,-0.044252,-0.008221,0.005591,0.008486,-2.461212,-33.978439,-27.470398,,,,,,,1
1514403830.816884,-1.096634,1.473868,-0.677923,0.014199,-0.017188,0.024522,-0.085918,-0.995306,-0.044094,-0.008076,0.003805,0.007855,-2.461212,-33.978439,-27.470398,,,,,,,1
1514403830.826863,-1.099449,1.473724,-0.675270,0.017378,-0.023622,0.024498,-0.086170,-0.995292,-0.043918,-0.006649,0.004936,0.005404,-2.635452,-34.020302,-27.603210,,,,,,,1
1514403830.836843,-1.102967,1.473558,-0.671989,0.021642,-0.023711,0.029853,-0.086470,-0.995276,-0.043688,-0.002885,0.005332,-0.000578,-2.635452,-34.020302,-27.603210,,,,,,,1
1514403830.846852,-1.106251,1.473396,-0.668875,0.018447,-0.022585,0.026644,-0.086759,-0.995260,-0.043477,0.003553,0.006201,0.002263,-2.495255,-34.023735,-27.322815,,,,,,,1
1514403830.856832,-1.108867,1.473277,-0.666400,0.015283,-0.014988,0.020255,-0.086980,-0.995249,-0.043303,0.003331,0.007425,0.006407,-2.495255,-34.023735,-27.322815,,,,,,,1
1514403830.866811,-1.110554,1.473175,-0.664744,0.008919,-0.005237,0.013870,-0.087143,-0.995239,-0.043201,-0.012863,0.006256,0.009357,-2.500000,-34.054184,-27.514954,,,,,,,1
1514403830.876821,-1.111875,1.473133,-0.663342,0.012203,0.010889,0.008600,-0.087239,-0.995235,-0.043105,-0.023098,0.005733,0.008513,-2.500000,-34.054184,-27.514954,,,,,,,1
1514403830.886800,-1.112601,1.473080,-0.662518,0.002541,0.002377,0.007475,-0.087318,-0.995230,-0.043066,-0.010735,0.005941,0.008779,-2.600021,-34.110550,-27.584473,,,,,,,1
1514403830.896779,-1.112909,1.472991,-0.662240,-0.002842,-0.005129,0.009571,-0.087412,-0.995221,-0.043078,0.000345,0.005154,0.006442,-2.600021,-34.110550,-27.584473,,,,,,,1
1514403830.906789,-1.113007,1.472897,-0.662143,-0.004970,-0.002964,0.008507,-0.087501,-0.995212,-0.043111,-0.000176,0.005527,0.007757,-2.569809,-34.222198,-27.636902,,,,,,,1
1514403830.916768,-1.113117,1.472812,-0.662041,-0.002823,-0.001887,0.007446,-0.087581,-0.995203,-0.043139,-0.005192,0.006998,0.007174,-2.569809,-34.222198,-27.636902,,,,,,,1
1514403830.926747,-1.113481,1.472730,-0.661647,-0.000688,-0.001943,0.010659,-0.087671,-0.995195,-0.043144,-0.004950,0.006701,0.002464,-2.812210,-34.125000,-27.532593,,,,,,,1
1514403830.936757,-1.114218,1.472611,-0.660925,0.002514,-0.000942,0.014947,-0.087809,-0.995184,-0.043131,0.001184,0.005392,0.000055,-2.812210,-34.125000,-27.532593,,,,,,,1
1514403830.946736,-1.115100,1.472483,-0.660029,0.001421,-0.007348,0.013847,-0.087963,-0.995171,-0.043111,0.005062,0.005181,0.001576,-2.763336,-34.055206,-27.615784,,,,,,,1
1514403830.956716,-1.115824,1.472338,-0.659424,-0.001807,-0.011634,0.014892,-0.088123,-0.995157,-0.043110,0.000934,0.005212,0.001606,-2.763336,-34.055206,-27.615784,,,,,,,1
1514403830.966725,-1.116187,1.472208,-0.659071,-0.002842,-0.004088,0.011715,-0.088256,-0.995144,-0.043135,-0.006226,0.005810,0.005034,-2.629547,-33.880718,-27.621277,,,,,,,1
1514403830.976705,-1.116569,1.472090,-0.658720,-0.002843,-0.005144,0.010640,-0.088379,-0.995132,-0.043154,-0.008667,0.006332,0.004152,-2.629547,-33.880718,-27.621277,,,,,,,1
1514403830.986684,-1.116972,1.471988,-0.658388,-0.002877,-0.014787,0.010598,-0.088490,-0.995122,-0.043164,-0.004619,0.004217,0.000576,-2.618118,-34.127174,-27.539673,,,,,,,1
1514403830.996694,-1.117452,1.471846,-0.658110,-0.002916,-0.022342,0.014842,-0.088637,-0.995108,-0.043183,-0.000886,0.004844,-0.001327,-2.618118,-34.127174,-27.539673,,,,,,,1
1514403831.006673,-1.118093,1.471683,-0.657686,-0.005082,-0.027718,0.016953,-0.088813,-0.995092,-0.043198,0.003349,0.005895,-0.000350,-2.709320,-33.963631,-27.615601,,,,,,,1
1514403831.016652,-1.118498,1.471495,-0.657574,-0.009373,-0.030914,0.016932,-0.088999,-0.995074,-0.043244,0.004740,0.004992,0.005555,-2.709320,-33.963631,-27.615601,,,,,,,1
1514403831.026662,-1.118497,1.471295,-0.657827,-0.011497,-0.027679,0.015873,-0.089179,-0.995054,-0.043332,-0.003946,0.001554,0.005795,-2.647781,-33.950150,-27.621826,,,,,,,1
1514403831.036641,-1.118649,1.471094,-0.657877,-0.009334,-0.019161,0.019124,-0.089366,-0.995034,-0.043406,-0.006795,0.004204,0.002711,-2.647781,-33.950150,-27.621826,,,,,,,1
1514403831.046620,-1.119009,1.470853,-0.657745,-0.011534,-0.032046,0.022270,-0.089596,-0.995010,-0.043478,-0.000675,0.005966,0.000600,-2.596359,-34.033356,-27.485291,,,,,,,1
1514403831.056630,-1.119201,1.470581,-0.657991,-0.014802,-0.047043,0.023267,-0.089850,-0.994983,-0.043579,0.003485,0.005481,-0.000229,-2.596359,-34.033356,-27.485291,,,,,,,1
1514403831.066609,-1.119497,1.470287,-0.658155,-0.014830,-0.051369,0.026456,-0.090125,-0.994953,-0.043680,0.002693,0.004749,-0.000769,-2.554657,-33.848125,-27.640991,,,,,,,1
1514403831.076589,-1.121113,1.470014,-0.657000,0.005522,-0.040810,0.031887,-0.090441,-0.994926,-0.043653,-0.001585,0.004371,-0.001529,-2.554657,-33.848125,-27.640991,,,,,,,1
1514403831.086598,-1.124045,1.469757,-0.654091,0.014242,0.004063,0.037452,-0.090800,-0.994900,-0.043498,0.001383,0.007244,-0.005406,-2.758774,-33.695709,-27.797852,,,,,,,1
1514403831.096578,-1.126536,1.469457,-0.651379,0.010022,0.020147,0.037517,-0.091177,-0.994870,-0.043400,0.007162,0.009991,0.007359,-2.758774,-33.695709,-27.797852,,,,,,,1
1514403831.106557,-1.127680,1.469217,-0.650024,0.000404,0.015007,0.024641,-0.091442,-0.994845,-0.043398,0.000576,0.005679,0.010576,-2.858780,-33.768173,-27.650208,,,,,,,1
1514403831.116567,-1.128027,1.469044,-0.649435,-0.002738,0.026917,0.016132,-0.091615,-0.994828,-0.043441,-0.020659,0.003861,0.012588,-2.858780,-33.768173,-27.650208,,,,,,,1
1514403831.126546,-1.127931,1.468948,-0.649167,-0.001634,0.030226,0.008662,-0.091698,-0.994818,-0.043491,-0.024589,0.004690,0.010517,-2.675461,-34.003101,-27.717224,,,,,,,1
1514403831.136525,-1.127554,1.468864,-0.649364,-0.005968,0.014205,0.006443,-0.091758,-0.994809,-0.043562,-0.009057,0.006253,0.004591,-2.675461,-34.003101,-27.717224,,,,,,,1
1514403831.146535,-1.126818,1.468801,-0.649954,-0.008120,0.008919,0.002137,-0.091784,-0.994803,-0.043657,-0.000547,0.004340,0.002977,-2.752518,-33.846382,-27.644287,,,,,,,1
1514403831.156514,-1.125899,1.468718,-0.650804,-0.012410,0.006780,0.003189,-0.091818,-0.994794,-0.043777,-0.003534,0.004942,0.005844,-2.752518,-33.846382,-27.644287,,,,,,,1
1514403831.166493,-1.124501,1.468647,-0.652083,-0.014530,0.006822,-0.000022,-0.091819,-0.994787,-0.043935,-0.007668,0.005758,0.007741,-3.003769,-33.834614,-27.599609,,,,,,,1
1514403831.176503,-1.123303,1.468569,-0.653223,-0.013469,0.006774,0.003189,-0.091836,-0.994779,-0.044078,-0.005607,0.006284,0.002193,-3.003769,-33.834614,-27.599609,,,,,,,1
1514403831.186482,-1.122951,1.468497,-0.653439,-0.000635,0.012032,0.007512,-0.091885,-0.994772,-0.044142,-0.001178,0.005194,-0.001772,-2.809387,-33.970741,-27.605347,,,,,,,1
1514403831.196462,-1.123976,1.468444,-0.652165,0.011184,0.028009,0.010813,-0.091978,-0.994767,-0.044070,0.006254,0.006623,-0.006253,-2.809387,-33.970741,-27.605347,,,,,,,1
1514403831.206432,-1.124843,1.468353,-0.650714,0.005957,0.063301,0.016310,-0.092098,-0.994757,-0.044030,0.008846,0.007804,0.000817,-2.786697,-33.843727,-27.688843,,,,,,,1
1514403831.216412,-1.124180,1.468295,-0.650454,0.000783,0.098885,0.000416,-0.092122,-0.994751,-0.044116,-0.000377,0.005616,0.012881,-2.786697,-33.843727,-27.688843,,,,,,,1
1514403831.226391,-1.122039,1.468396,-0.651527,-0.008792,0.099166,-0.017783,-0.091938,-0.994762,-0.044270,-0.013943,0.008220,0.014668,-2.722855,-33.779846,-27.557373,,,,,,,1
1514403831.236401,-1.118718,1.468559,-0.654056,-0.016336,0.075789,-0.029666,-0.091645,-0.994778,-0.044505,-0.031066,0.007657,0.012156,-2.722855,-33.779846,-27.557373,,,,,,,1
1514403831.246380,-1.114738,1.468838,-0.657340,-0.018504,0.059906,-0.042576,-0.091217,-0.994807,-0.044746,-0.030259,0.004084,0.009086,-2.755463,-33.828735,-27.409241,,,,,,,1
1514403831.256359,-1.111007,1.469136,-0.660750,-0.017573,0.023469,-0.041668,-0.090785,-0.994837,-0.044956,-0.013524,0.006342,0.002139,-2.755463,-33.828735,-27.409241,,,,,,,1
1514403831.266369,-1.107840,1.469421,-0.663690,-0.012253,0.019124,-0.038469,-0.090389,-0.994866,-0.045116,-0.001072,0.006188,-0.006367,-2.445572,-33.876617,-27.796387,,,,,,,1
1514403831.276348,-1.105462,1.469699,-0.665854,-0.003688,0.025431,-0.032009,-0.090033,-0.994894,-0.045207,0.003516,0.004721,-0.002645,-2.445572,-33.876617,-27.796387,,,,,,,1
1514403831.286327,-1.104076,1.469863,-0.666790,-0.001520,0.044469,-0.014806,-0.089824,-0.994911,-0.045257,0.006144,0.006568,0.000046,-2.543320,-33.880783,-27.896484,,,,,,,1
1514403831.296307,-1.103545,1.469898,-0.666852,0.000600,0.048572,-0.001949,-0.089768,-0.994914,-0.045289,0.017548,0.002070,-0.000045,-2.543320,-33.880783,-27.896484,,,,,,,1
1514403831.306316,-1.103688,1.469846,-0.666247,0.002667,0.035579,0.007623,-0.089821,-0.994909,-0.045300,0.028923,0.003469,-0.009418,-2.565628,-33.835819,-27.674316,,,,,,,1
1514403831.316296,-1.104595,1.469709,-0.664995,0.005845,0.036465,0.020468,-0.089982,-0.994895,-0.045279,0.015611,0.005134,-0.010782,-2.565628,-33.835819,-27.674316,,,,,,,1
1514403831.326275,-1.106194,1.469499,-0.662924,0.009052,0.041693,0.029054,-0.090241,-0.994874,-0.045228,0.000809,0.005326,-0.006758,-2.552124,-33.847404,-27.649048,,,,,,,1
1514403831.336285,-1.108437,1.469265,-0.660341,0.013267,0.027693,0.033277,-0.090552,-0.994850,-0.045130,0.004813,0.003990,-0.010320,-2.552124,-33.847404,-27.649048,,,,,,,1
1514403831.346264,-1.111541,1.469006,-0.656927,0.022874,0.028630,0.040785,-0.090925,-0.994824,-0.044964,0.010465,0.004345,-0.012363,-2.398117,-33.832451,-27.692932,,,,,,,1
1514403831.356243,-1.114912,1.468704,-0.652957,0.020870,0.067155,0.044162,-0.091346,-0.994793,-0.044790,0.006736,0.005825,-0.004679,-2.398117,-33.832451,-27.692932,,,,,,,1
1514403831.366253,-1.116790,1.468479,-0.650486,0.010129,0.042790,0.026921,-0.091631,-0.994770,-0.044716,-0.002745,0.009190,0.009148,-2.407928,-33.816261,-27.588989,,,,,,,1
1514403831.376232,-1.118087,1.468302,-0.648775,0.009065,0.042823,0.024780,-0.091847,-0.994752,-0.044675,-0.022868,0.006059,0.009579,-2.407928,-33.816261,-27.588989,,,,,,,1
1514403831.386211,-1.118739,1.468172,-0.647561,0.004836,0.049396,0.015176,-0.091992,-0.994739,-0.044671,-0.028705,0.005160,0.014108,-2.539017,-33.723480,-27.525940,,,,,,,1
1514403831.396221,-1.118888,1.468062,-0.647142,-0.002751,0.020549,0.011825,-0.092098,-0.994727,-0.044705,-0.010227,0.005195,0.008344,-2.539017,-33.723480,-27.525940,,,,,,,1
1514403831.406200,-1.118939,1.467940,-0.646952,-0.003863,0.007695,0.011766,-0.092210,-0.994715,-0.044754,-0.001814,0.003443,0.003647,-2.419357,-33.822693,-27.583435,,,,,,,1
1514403831.416180,-1.119278,1.467813,-0.646526,-0.000656,0.008724,0.013916,-0.092337,-0.994702,-0.044777,-0.005868,0.005398,0.003578,-2.419357,-33.822693,-27.583435,,,,,,,1
1514403831.426190,-1.119833,1.467678,-0.645779,0.001499,0.016191,0.016091,-0.092482,-0.994688,-0.044784,-0.005693,0.005980,0.001220,-2.478638,-33.876938,-27.511597,,,,,,,1
1514403831.436169,-1.120825,1.467503,-0.644577,0.004712,0.022504,0.023612,-0.092684,-0.994670,-0.044768,0.000796,0.006145,0.000350,-2.478638,-33.876938,-27.511597,,,,,,,1
1514403831.446148,-1.122106,1.467324,-0.642853,0.008000,0.041783,0.022635,-0.092903,-0.994651,-0.044727,0.006737,0.005790,0.003468,-2.544144,-33.782303,-27.390137,,,,,,,1
1514403831.456158,-1.123630,1.467180,-0.640885,0.012297,0.045008,0.020518,-0.093100,-0.994637,-0.044648,0.001685,0.004051,0.006256,-2.544144,-33.782303,-27.390137,,,,,,,1
1514403831.466137,-1.124726,1.467034,-0.639252,0.006953,0.046150,0.017304,-0.093281,-0.994622,-0.044608,-0.006252,0.002938,0.003822,-2.634445,-33.828171,-27.587402,,,,,,,1
1514403831.476116,-1.126231,1.466900,-0.637467,0.011130,0.022497,0.022554,-0.093469,-0.994608,-0.044526,0.003290,0.004358,-0.003036,-2.634445,-33.828171,-27.587402,,,,,,,1
1514403831.486126,-1.127668,1.466689,-0.635818,0.004685,0.016063,0.024653,-0.093724,-0.994586,-0.044482,-0.001354,0.006778,-0.006818,-2.541656,-33.946953,-27.474060,,,,,,,1
1514403831.496105,-1.128915,1.466567,-0.634408,0.007904,0.013995,0.018232,-0.093889,-0.994573,-0.044417,-0.009077,0.008062,-0.001909,-2.541656,-33.946953,-27.474060,,,,,,,1
1514403831.506085,-1.130398,1.466361,-0.632873,0.003540,-0.003244,0.026704,-0.094140,-0.994552,-0.044365,-0.003882,0.005935,-0.001503,-2.658066,-33.649841,-27.722534,,,,,,,1
1514403831.516094,-1.131973,1.466179,-0.631448,0.005632,-0.018205,0.023432,-0.094375,-0.994533,-0.044294,0.002837,0.004909,0.002256,-2.658066,-33.649841,-27.722534,,,,,,,1
1514403831.526074,-1.134055,1.465976,-0.629365,0.011024,-0.002228,0.028861,-0.094651,-0.994511,-0.044183,0.002625,0.005528,0.002924,-2.528656,-33.664146,-27.505859,,,,,,,1
1514403831.536053,-1.135732,1.465782,-0.627712,0.007821,-0.004286,0.023498,-0.094900,-0.994491,-0.044106,-0.002939,0.006286,0.003411,-2.528656,-33.664146,-27.505859,,,,,,,1
1514403831.546063,-1.137410,1.465604,-0.625976,0.007856,0.003222,0.022462,-0.095136,-0.994472,-0.044022,-0.007907,0.007061,0.004364,-2.563812,-33.833847,-27.489685,,,,,,,1
1514403831.556042,-1.138443,1.465455,-0.624841,0.004688,0.009748,0.016068,-0.095316,-0.994457,-0.043986,-0.010168,0.004604,0.008326,-2.563812,-33.833847,-27.489685,,,,,,,1
1514403831.566021,-1.139624,1.465309,-0.623454,0.005765,0.017158,0.022521,-0.095501,-0.994441,-0.043934,-0.002506,0.005275,0.002644,-2.705353,-33.786617,-27.679199,,,,,,,1
1514403831.576031,-1.140131,1.465208,-0.622809,0.000440,0.012040,0.006445,-0.095615,-0.994431,-0.043928,-0.010189,0.006195,0.007383,-2.705353,-33.786617,-27.679199,,,,,,,1
1514403831.586010,-1.140067,1.465210,-0.622622,0.000496,0.023880,0.002219,-0.095608,-0.994431,-0.043932,-0.015979,0.007569,0.006640,-2.410477,-33.720303,-27.656067,,,,,,,1
1514403831.595989,-1.139845,1.465185,-0.622681,-0.003818,0.012157,-0.001050,-0.095621,-0.994428,-0.043964,-0.010168,0.004606,0.005329,-2.410477,-33.720303,-27.656067,,,,,,,1
1514403831.605999,-1.139242,1.465213,-0.623319,-0.006040,-0.013485,-0.005446,-0.095570,-0.994431,-0.044010,-0.001842,0.005982,0.004261,-2.631317,-33.823254,-27.570557,,,,,,,1
1514403831.615978,-1.138335,1.465227,-0.624338,-0.008157,-0.008107,-0.006496,-0.095516,-0.994433,-0.044091,-0.005787,0.004946,0.004021,-2.631317,-33.823254,-27.570557,,,,,,,1
1514403831.625958,-1.137273,1.465254,-0.625406,-0.010288,-0.004865,-0.007555,-0.095446,-0.994436,-0.044181,-0.007245,0.006322,0.006340,-2.557144,-33.831276,-27.563721,,,,,,,1
1514403831.635967,-1.135884,1.465269,-0.626858,-0.013496,-0.003795,-0.006486,-0.095372,-0.994437,-0.044308,-0.005519,0.007499,0.004742,-2.557144,-33.831276,-27.563721,,,,,,,1
1514403831.645947,-1.134708,1.465244,-0.628040,-0.012441,-0.007078,-0.002220,-0.095342,-0.994435,-0.044431,-0.002649,0.006886,0.002210,-2.473984,-33.678818,-27.424133,,,,,,,1
1514403831.655926,-1.134115,1.465200,-0.628785,-0.007136,-0.015726,0.002029,-0.095357,-0.994430,-0.044506,0.002767,0.006362,-0.002033,-2.473984,-33.678818,-27.424133,,,,,,,1
1514403831.665936,-1.134279,1.465115,-0.628687,-0.002856,-0.009415,0.009552,-0.095441,-0.994421,-0.044526,0.005292,0.005468,-0.005400,-2.545288,-33.788612,-27.766235,,,,,,,1
1514403831.675915,-1.134434,1.465031,-0.628653,-0.003929,-0.012581,0.006327,-0.095523,-0.994412,-0.044547,0.004352,0.004468,-0.000314,-2.545288,-33.788612,-27.766235,,,,,,,1
1514403831.685894,-1.134219,1.464978,-0.628866,-0.003879,-0.000752,0.003171,-0.095563,-0.994406,-0.044590,-0.004764,0.005423,0.007160,-2.703262,-33.813763,-27.563965,,,,,,,1
1514403831.695904,-1.133636,1.464975,-0.629356,-0.005951,0.011153,-0.005336,-0.095539,-0.994406,-0.044647,-0.014706,0.006476,0.010360,-2.703262,-33.813763,-27.563965,,,,,,,1
1514403831.705883,-1.132369,1.465019,-0.630499,-0.011293,0.008029,-0.010707,-0.095442,-0.994411,-0.044749,-0.016893,0.005290,0.009867,-2.792740,-33.816124,-27.524353,,,,,,,1
1514403831.715862,-1.130765,1.465102,-0.631977,-0.011261,0.013442,-0.014961,-0.095295,-0.994420,-0.044867,-0.012981,0.005085,0.007101,-2.792740,-33.816124,-27.524353,,,,,,,1
1514403831.725872,-1.129037,1.465191,-0.633614,-0.013448,0.001671,-0.015018,-0.095139,-0.994429,-0.044994,-0.005248,0.006453,0.002758,-2.814865,-33.939083,-27.453247,,,,,,,1
1514403831.735851,-1.127374,1.465264,-0.635247,-0.012369,0.004866,-0.013932,-0.094998,-0.994437,-0.045121,-0.001910,0.006522,-0.000655,-2.814865,-33.939083,-27.453247,,,,,,,1
1514403831.745831,-1.125957,1.465321,-0.636551,-0.009162,0.008011,-0.009635,-0.094882,-0.994443,-0.045231,-0.001843,0.007336,-0.000759,-2.579132,-33.840847,-27.470032,,,,,,,1
1514403831.755840,-1.124895,1.465376,-0.637603,-0.007050,0.000505,-0.009664,-0.094784,-0.994448,-0.045308,0.000821,0.003726,-0.000041,-2.579132,-33.840847,-27.470032,,,,,,,1
1514403831.765820,-1.123636,1.465420,-0.638801,-0.010246,0.003730,-0.009655,-0.094690,-0.994453,-0.045409,0.000467,0.001991,0.006316,-2.721008,-33.779816,-27.463257,,,,,,,1
1514403831.775799,-1.122322,1.465473,-0.639972,-0.010188,0.018740,-0.010658,-0.094582,-0.994459,-0.045510,-0.004295,0.005735,0.009179,-2.721008,-33.779816,-27.463257,,,,,,,1
1514403831.785809,-1.120618,1.465513,-0.641436,-0.012319,0.018724,-0.009591,-0.094468,-0.994463,-0.045654,-0.008575,0.004854,0.009246,-2.540817,-33.720673,-27.401001,,,,,,,1
1514403831.795788,-1.119062,1.465547,-0.642871,-0.010204,0.012289,-0.009616,-0.094366,-0.994466,-0.045786,-0.001551,0.003637,0.005472,-2.540817,-33.720673,-27.401001,,,,,,,1
1514403831.805767,-1.117492,1.465555,-0.644332,-0.014523,0.003710,-0.007523,-0.094285,-0.994467,-0.045930,0.004121,0.005316,0.002000,-2.503830,-33.662010,-27.464539,,,,,,,1
1514403831.815777,-1.116072,1.465563,-0.645680,-0.012362,0.010114,-0.006421,-0.094213,-0.994468,-0.046060,-0.002024,0.005424,-0.000494,-2.503830,-33.662010,-27.464539,,,,,,,1
1514403831.825756,-1.114801,1.465569,-0.646741,-0.010201,0.017592,-0.005314,-0.094149,-0.994469,-0.046177,-0.008192,0.008751,-0.003566,-2.386307,-33.817436,-27.662720,,,,,,,1
1514403831.835735,-1.113683,1.465598,-0.647790,-0.009171,0.006876,-0.005361,-0.094071,-0.994472,-0.046270,-0.004516,0.008510,-0.003138,-2.386307,-33.817436,-27.662720,,,,,,,1
1514403831.845745,-1.112609,1.465585,-0.648802,-0.011347,-0.001714,-0.003263,-0.094033,-0.994470,-0.046376,0.002617,0.004816,-0.001658,-2.330307,-33.799675,-27.502319,,,,,,,1
1514403831.855724,-1.111642,1.465543,-0.649831,-0.011368,-0.004970,-0.000069,-0.094026,-0.994466,-0.046486,0.003511,0.005651,0.000877,-2.330307,-33.799675,-27.502319,,,,,,,1
1514403831.865704,-1.110743,1.465512,-0.650688,-0.010274,0.002544,-0.001104,-0.094013,-0.994463,-0.046585,-0.003186,0.004564,0.004135,-2.648331,-33.737579,-27.634033,,,,,,,1
1514403831.875683,-1.109807,1.465472,-0.651567,-0.010268,0.005728,0.001049,-0.094005,-0.994458,-0.046691,-0.005375,0.004590,0.004912,-2.648331,-33.737579,-27.634033,,,,,,,1
1514403831.885693,-1.108576,1.465428,-0.652687,-0.013459,0.006850,-0.002159,-0.093985,-0.994454,-0.046825,-0.002527,0.005501,0.005351,-2.405930,-33.800446,-27.691528,,,,,,,1
1514403831.895672,-1.107351,1.465408,-0.653849,-0.011316,0.006856,-0.003225,-0.093945,-0.994452,-0.046949,-0.002353,0.004568,0.004712,-2.405930,-33.800446,-27.691528,,,,,,,1
1514403831.905651,-1.105879,1.465383,-0.655235,-0.015598,0.003703,-0.006456,-0.093898,-0.994449,-0.047098,-0.006017,0.006336,0.005609,-2.346863,-33.882656,-27.451660,,,,,,,1
1514403831.915661,-1.104074,1.465397,-0.656975,-0.015570,0.009101,-0.009640,-0.093800,-0.994451,-0.047261,-0.007610,0.006902,0.006795,-2.346863,-33.882656,-27.451660,,,,,,,1
1514403831.925640,-1.102368,1.465422,-0.658527,-0.015577,0.008033,-0.009645,-0.093698,-0.994453,-0.047410,-0.007208,0.005012,0.007005,-2.274124,-33.674080,-27.622070,,,,,,,1
1514403831.935619,-1.100557,1.465438,-0.660379,-0.015630,-0.006948,-0.010782,-0.093597,-0.994455,-0.047572,-0.003021,0.004037,0.002895,-2.274124,-33.674080,-27.622070,,,,,,,1
1514403831.945629,-1.098312,1.465461,-0.662602,-0.020948,0.000603,-0.012897,-0.093471,-0.994457,-0.047773,-0.002491,0.005962,0.002103,-2.443665,-33.979965,-27.515747,,,,,,,1
1514403831.955608,-1.096551,1.465495,-0.664414,-0.015629,-0.005874,-0.010777,-0.093357,-0.994461,-0.047922,-0.007549,0.007828,0.000742,-2.443665,-33.979965,-27.515747,,,,,,,1
1514403831.965588,-1.094568,1.465480,-0.666449,-0.023127,-0.009111,-0.007595,-0.093277,-0.994459,-0.048115,-0.002075,0.007948,0.002506,-2.320999,-33.620728,-27.772339,,,,,,,1
1514403831.975597,-1.092575,1.465444,-0.668562,-0.022067,-0.010215,-0.005459,-0.093213,-0.994456,-0.048317,0.003614,0.006418,0.006386,-2.320999,-33.620728,-27.772339,,,,,,,1
1514403831.985577,-1.090802,1.465386,-0.670280,-0.018814,0.003687,-0.004322,-0.093177,-0.994449,-0.048508,-0.002419,0.004566,0.001618,-2.110413,-33.537949,-27.455750,,,,,,,1
1514403831.995556,-1.089174,1.465334,-0.671837,-0.015588,0.009016,-0.003223,-0.093144,-0.994444,-0.048684,-0.004863,0.006086,-0.000648,-2.110413,-33.537949,-27.455750,,,,,,,1
1514403832.005566,-1.088080,1.465277,-0.672750,-0.010226,0.015380,0.000023,-0.093140,-0.994438,-0.048812,-0.001052,0.005455,-0.005494,-2.262878,-33.807037,-27.677429,,,,,,,1
1514403832.015545,-1.087245,1.465211,-0.673502,-0.010264,0.006783,0.002124,-0.093158,-0.994431,-0.048921,0.002582,0.005433,-0.005111,-2.262878,-33.807037,-27.677429,,,,,,,1
1514403832.025524,-1.086384,1.465130,-0.674249,-0.011332,0.007843,0.003197,-0.093188,-0.994423,-0.049038,0.001620,0.006233,-0.001346,-2.343491,-33.829391,-27.534302,,,,,,,1
1514403832.035534,-1.085584,1.465045,-0.674976,-0.011340,0.005701,0.003187,-0.093224,-0.994414,-0.049153,-0.002998,0.005385,0.007206,-2.343491,-33.829391,-27.534302,,,,,,,1
1514403832.045513,-1.084454,1.464981,-0.676044,-0.014550,0.001501,-0.002185,-0.093224,-0.994407,-0.049287,-0.006203,0.003516,0.007859,-2.388504,-33.624413,-27.597656,,,,,,,1
1514403832.055492,-1.083151,1.464954,-0.677325,-0.014536,0.004728,-0.003241,-0.093183,-0.994404,-0.049421,-0.007326,0.004917,0.006987,-2.388504,-33.624413,-27.597656,,,,,,,1
1514403832.065502,-1.081574,1.464952,-0.678818,-0.014538,0.001592,-0.008603,-0.093107,-0.994404,-0.049569,-0.007265,0.006580,0.004342,-2.377808,-33.668350,-27.848450,,,,,,,1
1514403832.075481,-1.080234,1.464910,-0.680170,-0.014571,-0.001722,-0.001131,-0.093077,-0.994399,-0.049713,-0.003954,0.006042,-0.001220,-2.377808,-33.668350,-27.848450,,,,,,,1
1514403832.085461,-1.078763,1.464919,-0.681567,-0.011308,0.004801,-0.009652,-0.092996,-0.994400,-0.049846,-0.009726,0.006775,-0.001912,-2.430435,-33.595852,-27.814392,,,,,,,1
1514403832.095471,-1.077641,1.464918,-0.682682,-0.010279,-0.001716,-0.003262,-0.092941,-0.994400,-0.049951,-0.004029,0.008179,-0.005179,-2.430435,-33.595852,-27.814392,,,,,,,1
1514403832.105450,-1.076957,1.464877,-0.683362,-0.008160,-0.004999,0.001006,-0.092942,-0.994396,-0.050034,0.002473,0.006755,-0.002182,-2.457703,-33.620647,-27.788757,,,,,,,1
1514403832.115429,-1.076652,1.464837,-0.683724,-0.004949,-0.003955,0.002086,-0.092961,-0.994392,-0.050081,0.004476,0.006370,0.002168,-2.457703,-33.620647,-27.788757,,,,,,,1
1514403832.125439,-1.076215,1.464783,-0.684068,-0.005983,0.007838,0.002136,-0.092988,-0.994386,-0.050147,-0.002776,0.003343,0.005256,-2.405899,-33.637909,-27.702759,,,,,,,1
1514403832.135418,-1.075730,1.464758,-0.684443,-0.003821,0.012143,0.000020,-0.092985,-0.994383,-0.050204,-0.004534,0.005812,0.007510,-2.405899,-33.637909,-27.702759,,,,,,,1
1514403832.145397,-1.075212,1.464764,-0.684758,-0.004862,0.015414,-0.004245,-0.092953,-0.994384,-0.050249,-0.006976,0.006255,0.007143,-2.287674,-33.592773,-27.856445,,,,,,,1
1514403832.155407,-1.074248,1.464806,-0.685611,-0.007003,0.011210,-0.009616,-0.092869,-0.994388,-0.050319,-0.009533,0.004612,0.004802,-2.287674,-33.592773,-27.856445,,,,,,,1
1514403832.165386,-1.073508,1.464839,-0.686199,-0.002742,0.011140,-0.005331,-0.092804,-0.994392,-0.050373,-0.008011,0.006996,-0.001462,-2.453690,-33.467525,-27.683533,,,,,,,1
1514403832.175366,-1.073029,1.464874,-0.686635,-0.002774,0.002571,-0.005369,-0.092750,-0.994395,-0.050401,-0.002191,0.006938,-0.004531,-2.453690,-33.467525,-27.683533,,,,,,,1
1514403832.185375,-1.072268,1.464886,-0.687356,-0.005997,-0.000661,-0.003250,-0.092701,-0.994397,-0.050466,0.001835,0.005658,-0.000651,-2.367218,-33.610107,-27.694092,,,,,,,1
1514403832.195355,-1.071457,1.464881,-0.688132,-0.007040,0.005784,-0.004292,-0.092666,-0.994396,-0.050544,-0.001069,0.005001,0.003379,-2.367218,-33.610107,-27.694092,,,,,,,1
1514403832.205334,-1.070588,1.464875,-0.688862,-0.008097,0.010059,-0.003205,-0.092625,-0.994396,-0.050626,-0.004055,0.004482,0.005598,-2.430145,-33.675011,-27.963623,,,,,,,1
1514403832.215343,-1.069842,1.464855,-0.689490,-0.007028,0.012154,0.000015,-0.092605,-0.994393,-0.050705,-0.003785,0.005578,0.003754,-2.430145,-33.675011,-27.963623,,,,,,,1
1514403832.225322,-1.069076,1.464804,-0.690147,-0.008123,0.005715,0.001054,-0.092609,-0.994388,-0.050800,-0.000912,0.008136,0.002429,-2.487991,-33.451141,-27.699829,,,,,,,1
1514403832.235301,-1.068642,1.464760,-0.690544,-0.005991,0.004621,0.002122,-0.092626,-0.994383,-0.050861,-0.000529,0.005263,0.000675,-2.487991,-33.451141,-27.699829,,,,,,,1
1514403832.245311,-1.068536,1.464713,-0.690501,-0.001692,0.012076,0.004302,-0.092661,-0.994378,-0.050893,-0.004140,0.004754,0.002172,-2.599899,-33.701561,-27.726440,,,,,,,1
1514403832.255290,-1.068475,1.464682,-0.690483,-0.001717,0.004592,0.003199,-0.092685,-0.994375,-0.050914,-0.003629,0.006796,0.003077,-2.599899,-33.701561,-27.726440,,,,,,,1
1514403832.265269,-1.068595,1.464635,-0.690321,-0.000681,-0.002939,0.005306,-0.092732,-0.994370,-0.050925,-0.000026,0.004441,-0.001168,-2.539871,-33.399918,-27.603333,,,,,,,1
1514403832.275279,-1.068606,1.464611,-0.690314,-0.001719,0.002479,0.001050,-0.092754,-0.994368,-0.050936,-0.001118,0.003981,-0.001097,-2.539871,-33.399918,-27.603333,,,,,,,1
1514403832.285258,-1.068607,1.464596,-0.690178,0.000448,0.009951,0.002157,-0.092767,-0.994366,-0.050943,-0.007132,0.007595,0.001748,-2.359329,-33.451332,-27.747437,,,,,,,1
1514403832.295238,-1.068645,1.464584,-0.690052,0.000447,0.008894,0.001083,-0.092780,-0.994365,-0.050945,-0.007470,0.007503,0.001843,-2.359329,-33.451332,-27.747437,,,,,,,1
1514403832.305247,-1.068775,1.464569,-0.689818,0.000433,0.006741,0.002143,-0.092799,-0.994363,-0.050940,-0.000142,0.006341,0.000449,-2.374451,-33.417625,-27.551941,,,,,,,1
1514403832.315227,-1.068741,1.464541,-0.689792,-0.000649,0.003532,0.002126,-0.092823,-0.994360,-0.050957,0.001712,0.005057,0.005929,-2.374451,-33.417625,-27.551941,,,,,,,1
1514403832.325206,-1.068585,1.464506,-0.689795,-0.000614,0.012098,0.002165,-0.092845,-0.994356,-0.050989,-0.007237,0.004473,0.010232,-2.506683,-33.384529,-27.681396,,,,,,,1
1514403832.335216,-1.068559,1.464489,-0.689641,0.000469,0.016364,0.003256,-0.092859,-0.994355,-0.050999,-0.006826,0.004838,0.003850,-2.506683,-33.384529,-27.681396,,,,,,,1
1514403832.345195,-1.068232,1.464469,-0.689843,-0.002779,0.004641,-0.000012,-0.092861,-0.994353,-0.051040,0.001339,0.005903,0.000960,-2.501572,-33.634529,-27.617249,,,,,,,1
1514403832.355174,-1.068037,1.464463,-0.689940,-0.001685,0.012120,0.001093,-0.092856,-0.994352,-0.051061,-0.003106,0.004896,0.000844,-2.501572,-33.634529,-27.617249,,,,,,,1
1514403832.365184,-1.067943,1.464485,-0.689889,0.001525,0.007877,-0.003198,-0.092833,-0.994354,-0.051059,-0.008501,0.005936,-0.000439,-2.478424,-33.608734,-27.688477,,,,,,,1
1514403832.375163,-1.068001,1.464516,-0.689614,0.003694,0.017479,-0.001012,-0.092806,-0.994358,-0.051038,-0.005323,0.006732,-0.003986,-2.438354,-33.675297,-27.763733,,,,,,,1
1514403832.385142,-1.068243,1.464548,-0.689270,0.004715,0.005698,-0.001064,-0.092791,-0.994361,-0.051000,0.001345,0.004050,-0.001979,-2.438354,-33.675297,-27.763733,,,,,,,1
1514403832.395152,-1.068247,1.464574,-0.689225,0.001476,-0.002844,-0.002177,-0.092770,-0.994364,-0.050988,-0.000523,0.005518,0.002236,-2.252045,-33.449982,-27.860229,,,,,,,1
1514403832.405130,-1.068172,1.464591,-0.689296,-0.001709,0.001463,-0.003232,-0.092750,-0.994366,-0.050986,-0.006417,0.006893,0.006476,-2.252045,-33.449982,-27.860229,,,,,,,1
1514403832.415111,-1.067546,1.464641,-0.689914,-0.004928,-0.004879,-0.008614,-0.092674,-0.994371,-0.051020,-0.007026,0.005525,0.008967,-2.366165,-33.593468,-27.708252,,,,,,,1
1514403832.425119,-1.066705,1.464727,-0.690771,-0.003837,0.000522,-0.011798,-0.092557,-0.994380,-0.051057,-0.007708,0.005015,0.006929,-2.366165,-33.593468,-27.708252,,,,,,,1
1514403832.435100,-1.065781,1.464817,-0.691665,-0.004906,-0.001572,-0.015018,-0.092431,-0.994389,-0.051099,-0.009070,0.007466,0.004117,-2.215073,-33.558426,-27.841492,,,,,,,1
1514403832.445079,-1.064719,1.464927,-0.692770,-0.004903,-0.003707,-0.016096,-0.092282,-0.994401,-0.051144,-0.007190,0.007325,-0.001178,-2.215073,-33.558426,-27.841492,,,,,,,1
1514403832.455058,-1.063940,1.465052,-0.693579,-0.001713,-0.008019,-0.015040,-0.092133,-0.994414,-0.051156,-0.003951,0.006835,-0.005134,-2.478531,-33.441662,-27.720520,,,,,,,1
1514403832.465067,-1.063448,1.465158,-0.694164,0.000414,-0.008067,-0.011829,-0.092015,-0.994425,-0.051149,-0.001247,0.006663,-0.002638,-2.478531,-33.441662,-27.720520,,,,,,,1
1514403832.475046,-1.062990,1.465266,-0.694642,0.000421,-0.006981,-0.012893,-0.091896,-0.994437,-0.051138,0.000175,0.006598,0.001853,-2.376923,-33.539211,-27.642883,,,,,,,1
1514403832.485025,-1.062671,1.465389,-0.694995,0.002585,-0.000564,-0.012861,-0.091772,-0.994450,-0.051108,-0.004053,0.004795,0.005011,-2.376923,-33.539211,-27.642883,,,,,,,1
1514403832.495035,-1.062259,1.465510,-0.695378,0.001503,-0.003773,-0.012877,-0.091648,-0.994462,-0.051088,-0.005138,0.004335,0.005755,-2.138977,-33.462074,-27.659302,,,,,,,1
1514403832.505014,-1.061913,1.465654,-0.695785,0.003639,-0.006968,-0.015026,-0.091505,-0.994478,-0.051050,-0.005343,0.005128,0.000330,-2.138977,-33.462074,-27.659302,,,,,,,1
1514403832.514995,-1.061616,1.465793,-0.696123,0.003624,-0.010196,-0.013971,-0.091369,-0.994492,-0.051010,-0.004212,0.005463,-0.001084,-2.188797,-33.448135,-27.706299,,,,,,,1
1514403832.525003,-1.061366,1.465946,-0.696494,0.003609,-0.013390,-0.015056,-0.091223,-0.994508,-0.050958,-0.004022,0.006395,0.000131,-2.188797,-33.448135,-27.706299,,,,,,,1
1514403832.534983,-1.061242,1.466075,-0.696758,0.003581,-0.018788,-0.011871,-0.091106,-0.994522,-0.050907,-0.001576,0.007278,-0.000179,-2.399170,-33.524685,-27.610962,,,,,,,1
1514403832.544962,-1.060969,1.466180,-0.697240,0.000362,-0.021991,-0.011891,-0.090999,-0.994533,-0.050881,0.000209,0.006724,0.004357,-2.399170,-33.524685,-27.610962,,,,,,,1
1514403832.554972,-1.060567,1.466306,-0.697767,0.000392,-0.015536,-0.014001,-0.090869,-0.994546,-0.050856,-0.003919,0.005578,0.008619,-2.455109,-33.461876,-27.717346,,,,,,,1
1514403832.564951,-1.060305,1.466435,-0.698165,0.002536,-0.013399,-0.013988,-0.090744,-0.994559,-0.050817,-0.007569,0.005881,0.006002,-2.455109,-33.461876,-27.717346,,,,,,,1
1514403832.574930,-1.059986,1.466569,-0.698608,0.001441,-0.020878,-0.015093,-0.090610,-0.994573,-0.050780,-0.003231,0.006704,0.002349,-2.428848,-33.609642,-27.804016,,,,,,,1
1514403832.584940,-1.059740,1.466696,-0.699141,0.002480,-0.028412,-0.012985,-0.090487,-0.994586,-0.050740,-0.002012,0.005298,-0.001536,-2.428848,-33.609642,-27.804016,,,,,,,1
1514403832.594919,-1.059738,1.466850,-0.699412,0.004602,-0.034819,-0.015149,-0.090355,-0.994602,-0.050666,-0.003090,0.005665,-0.003380,-2.488098,-33.484108,-27.748352,,,,,,,1
1514403832.604898,-1.059759,1.467010,-0.699832,0.003494,-0.046568,-0.017343,-0.090217,-0.994619,-0.050587,-0.004281,0.005819,-0.003033,-2.488098,-33.484108,-27.748352,,,,,,,1
1514403832.614908,-1.059771,1.467193,-0.700269,0.004551,-0.050843,-0.018430,-0.090060,-0.994638,-0.050497,-0.005979,0.006280,-0.000788,-2.546051,-33.727234,-27.684814,,,,,,,1
1514403832.624887,-1.059721,1.467353,-0.700925,0.002369,-0.062635,-0.017416,-0.089918,-0.994655,-0.050423,-0.004580,0.005244,0.001351,-2.546051,-33.727234,-27.684814,,,,,,,1
1514403832.634867,-1.059826,1.467490,-0.701511,0.001247,-0.074456,-0.014262,-0.089804,-0.994669,-0.050347,-0.000726,0.003504,0.002419,-2.266769,-33.600540,-27.533142,,,,,,,1
1514403832.644876,-1.060785,1.467519,-0.700968,0.008872,-0.022254,0.005236,-0.089827,-0.994672,-0.050247,0.003126,0.002164,0.002655,-2.266769,-33.600540,-27.533142,,,,,,,1
1514403832.654856,-1.061337,1.467520,-0.700219,0.004759,0.018537,0.000063,-0.089853,-0.994672,-0.050196,0.012445,0.004605,0.009776,-2.483109,-33.636284,-27.842834,,,,,,,1
1514403832.664835,-1.060646,1.467609,-0.700775,-0.002704,0.014466,-0.013872,-0.089741,-0.994681,-0.050215,-0.001278,0.008841,0.007491,-2.483109,-33.636284,-27.842834,,,,,,,1
1514403832.674845,-1.059327,1.467768,-0.701777,-0.000497,0.028454,-0.019154,-0.089538,-0.994697,-0.050257,-0.027039,0.006202,0.008875,-2.477005,-33.662468,-27.737732,,,,,,,1
